"Time (s)";"Acceleration x (m/s^2)";"Acceleration y (m/s^2)";"Acceleration z (m/s^2)"
2.259638500E-2;-4.204218388E0;3.962403774E0;4.115632534E0
2.718192300E-2;-3.713406801E0;3.751713991E0;4.647145271E0
3.192761600E-2;-3.380612850E0;3.452438831E0;5.353435040E0
3.687261600E-2;-3.172317266E0;3.040636063E0;6.332663536E0
4.173788500E-2;-3.004723072E0;2.691082716E0;7.419631004E0
4.660096200E-2;-2.662352324E0;2.513911724E0;8.286332130E0
5.154596200E-2;-2.219424963E0;2.243366957E0;8.700529099E0
5.648996200E-2;-1.889025092E0;1.896207690E0;9.437943459E0
6.140503900E-2;-1.472434044E0;1.651999116E0;9.823410034E0
6.635003900E-2;-1.055842996E0;1.474828243E0;1.038604736E1
7.129503900E-2;-6.344634295E-1;1.355118155E0;1.095826149E1
7.624003900E-2;-3.734954596E-1;1.309628367E0;1.134133339E1
8.118503900E-2;-3.160346150E-1;1.237802267E0;1.153765774E1
8.612903900E-2;-3.950432837E-1;1.271321058E0;1.163342571E1
9.107403900E-2;-4.668693244E-1;1.316810966E0;1.159751320E1
9.601903900E-2;-5.793967843E-1;1.453280449E0;1.157835960E1
1.009640390E-1;-7.493851185E-1;1.546654344E0;1.157357121E1
1.059090390E-1;-9.552865028E-1;1.644816518E0;1.163342571E1
1.108540390E-1;-1.185129881E0;1.697489023E0;1.165736771E1
1.157980390E-1;-1.424550056E0;1.793257117E0;1.161666679E1
1.207430390E-1;-1.556231141E0;1.905784607E0;1.157596493E1
1.256880390E-1;-1.690306425E0;1.965639591E0;1.163582039E1
1.306330390E-1;-1.738190413E0;2.073378563E0;1.174116516E1
1.355780390E-1;-1.728613615E0;2.200271368E0;1.190157700E1
1.405230390E-1;-1.596932530E0;2.217030764E0;1.201410389E1
1.454670390E-1;-1.359906554E0;2.121262789E0;1.200692177E1
1.504120390E-1;-1.098938584E0;1.891419291E0;1.190157700E1
1.553570390E-1;-8.978256583E-1;1.470039845E0;1.157357121E1
1.603020390E-1;-5.434837937E-1;1.285686255E0;1.131978607E1
1.652470390E-1;-3.758896589E-1;1.103726983E0;1.110670185E1
1.701920390E-1;-3.040636182E-1;9.600749016E-1;1.086728191E1
1.751360390E-1;-3.663128614E-1;8.738836050E-1;1.060631371E1
1.800810390E-1;-4.908113480E-1;9.217676520E-1;1.030224991E1
1.850260390E-1;-5.147533417E-1;8.810662031E-1;1.000297451E1
1.899710390E-1;-6.392518282E-1;8.810662031E-1;9.481039047E0
1.949160390E-1;-8.020575643E-1;9.457096457E-1;8.552088737E0
1.998610390E-1;-1.029506683E0;1.082179189E0;8.844181061E0
2.048050390E-1;-1.058237195E0;1.218648672E0;9.081207275E0
2.097530390E-1;-9.385270476E-1;1.376665950E0;9.208099365E0
2.146980390E-1;-7.398083210E-1;1.551442742E0;9.215282440E0
2.196430390E-1;-5.434837937E-1;1.702277422E0;9.390059471E0
2.245870390E-1;-3.758896589E-1;1.793257117E0;9.509769440E0
2.295320390E-1;-2.154781520E-1;1.862688899E0;9.600749016E0
2.344770390E-1;-4.548983276E-2;1.821987510E0;9.785101891E0
2.394220390E-1;1.101332754E-1;1.644816518E0;9.871294022E0
2.443670390E-1;2.561795712E-1;1.268926859E0;9.813833237E0
2.493120390E-1;3.639186621E-1;9.576807022E-1;9.773131371E0
2.542560390E-1;5.075707436E-1;7.733271718E-1;9.785101891E0
2.592010390E-1;9.169792533E-1;1.106121182E0;1.001494598E1
2.641460390E-1;1.031900883E0;1.096544385E0;1.026633644E1
2.690910390E-1;8.164227605E-1;8.020575643E-1;1.053209305E1
2.740360390E-1;4.764461517E-1;4.357447028E-1;1.070208168E1
2.789810390E-1;2.394201756E-1;-4.788403399E-3;1.088404083E1
2.839250390E-1;2.178723514E-1;-3.615244627E-1;1.119049835E1
2.888700390E-1;3.639186621E-1;-5.195417404E-1;1.159033012E1
2.938150390E-1;3.399766386E-1;-5.003881454E-1;1.199973869E1
2.987600390E-1;-2.394201700E-3;-5.817909837E-1;1.228704357E1
3.037050390E-1;-4.979939461E-1;-6.991068721E-1;1.239717674E1
3.086500390E-1;-9.816226959E-1;-8.403648138E-1;1.240914726E1
3.135940390E-1;-1.323993564E0;-9.050082564E-1;1.237323475E1
3.185390390E-1;-1.436521053E0;-8.834604025E-1;1.235168648E1
3.234840390E-1;-1.470039845E0;-7.302315235E-1;1.229422569E1
3.284290390E-1;-1.482010841E0;-5.650315881E-1;1.213620853E1
3.333740390E-1;-1.470039845E0;-4.189853072E-1;1.181299114E1
3.383190390E-1;-1.414973259E0;-3.327940404E-1;1.135091019E1
3.432630390E-1;-1.230619669E0;-2.322375625E-1;1.082179165E1
3.482080390E-1;-9.816226959E-1;-1.221042871E-1;1.034295177E1
3.531530390E-1;-6.847416759E-1;6.464344263E-2;9.943120003E0
3.580980390E-1;-4.261679053E-1;2.968810201E-1;9.552865028E0
3.630085380E-1;-1.891419291E-1;5.434837937E-1;9.198522568E0
3.679535380E-1;9.097966552E-2;8.379706144E-1;8.851364136E0
3.728975380E-1;3.423708379E-1;1.101332784E0;8.444349289E0
3.778157690E-1;5.554547906E-1;1.333570361E0;8.159439087E0
3.827607690E-1;5.961562395E-1;1.496376038E0;7.989450932E0
3.877057690E-1;5.817909837E-1;1.599326730E0;7.948749542E0
3.926507690E-1;4.860229492E-1;1.654393315E0;8.022970200E0
3.975805770E-1;3.711012602E-1;1.678335428E0;8.180987358E0
4.025245770E-1;2.154781520E-1;1.599326730E0;8.413225174E0
4.074695770E-1;5.506663769E-2;1.460463047E0;8.693346024E0
4.124145770E-1;-1.484405100E-1;1.261744261E0;9.059659004E0
4.173595770E-1;-4.070142806E-1;1.019929886E0;9.493009567E0
4.223045770E-1;-6.105214357E-1;8.427590132E-1;9.873687744E0
4.272495770E-1;-8.164227605E-1;6.607996821E-1;1.024478912E1
4.321935770E-1;-9.648633003E-1;4.860229492E-1;1.055842972E1
4.371385770E-1;-1.082179189E0;3.280056417E-1;1.081221485E1
4.420835770E-1;-1.185129881E0;2.130839527E-1;1.099417400E1
4.470285770E-1;-1.261744261E0;6.464344263E-2;1.106360626E1
4.519735770E-1;-1.280897856E0;-3.591302410E-2;1.099896240E1
4.569185770E-1;-1.292868972E0;-9.337386489E-2;1.087446404E1
4.618625770E-1;-1.283292055E0;-1.149216816E-1;1.062067890E1
4.667914230E-1;-1.264138460E0;-1.005564705E-1;1.041477776E1
4.717364230E-1;-1.276109457E0;-2.873042040E-2;1.023042393E1
4.766814230E-1;-1.273715258E0;4.788403213E-2;1.008198357E1
4.816264230E-1;-1.278503656E0;1.628057212E-1;9.950302124E0
4.865714230E-1;-1.290474772E0;2.585737705E-1;9.844957352E0
4.915154230E-1;-1.321599364E0;3.351882398E-1;9.794678688E0
4.964604230E-1;-1.314416766E0;3.711012602E-1;9.770736694E0
5.014054230E-1;-1.300051570E0;4.357447028E-1;9.753977776E0
5.063504230E-1;-1.211466074E0;4.644751251E-1;9.737217903E0
5.112954230E-1;-1.132457376E0;4.932055473E-1;9.725247383E0
5.162404230E-1;-1.015141487E0;4.979939461E-1;9.722852707E0
5.211844230E-1;-9.145850539E-1;5.051765442E-1;9.701305389E0
5.261294230E-1;-8.355764151E-1;5.291185975E-1;9.646238327E0
5.310744230E-1;-7.541735172E-1;5.458779931E-1;9.622296333E0
5.360194230E-1;-6.488286853E-1;6.009446383E-1;9.567230225E0
5.409644230E-1;-5.865794420E-1;6.248866320E-1;9.507374763E0
5.459094230E-1;-5.219359994E-1;6.584054828E-1;9.440337181E0
5.508544230E-1;-5.003881454E-1;7.469909191E-1;9.366117477E0
5.557984230E-1;-4.764461517E-1;7.876923680E-1;9.323021889E0
5.607434230E-1;-4.884171486E-1;8.259995580E-1;9.284713745E0
5.656884230E-1;-4.812345505E-1;8.571242094E-1;9.179368973E0
5.706299610E-1;-5.219359994E-1;8.212111592E-1;9.047688484E0
5.755749610E-1;-5.434837937E-1;7.876923680E-1;8.927978516E0
5.805109230E-1;-5.937620401E-1;7.661445141E-1;8.851364136E0
5.854549230E-1;-6.895300746E-1;7.469909191E-1;8.796297073E0
5.903999230E-1;-7.781155705E-1;7.422025204E-1;8.722076416E0
5.953449230E-1;-8.954314590E-1;7.158663273E-1;8.702922821E0
6.002899230E-1;-9.720458984E-1;6.584054828E-1;8.719682693E0
6.052349230E-1;-1.017535686E0;6.177040339E-1;8.798690796E0
6.101799230E-1;-1.015141487E0;5.530605912E-1;8.848969460E0
6.151239230E-1;-9.816226959E-1;4.884171486E-1;8.923190117E0
6.200689230E-1;-9.313444495E-1;4.118026793E-1;9.038111687E0
6.250139230E-1;-8.427590132E-1;3.447650373E-1;9.145850182E0
6.299589230E-1;-7.541735172E-1;2.705447972E-1;9.275136948E0
6.349020770E-1;-6.751648784E-1;2.394201756E-1;9.425971985E0
6.398470770E-1;-5.626373887E-1;2.106897533E-1;9.540893555E0
6.447910770E-1;-5.003881454E-1;2.250549644E-1;9.646238327E0
6.497360770E-1;-4.357447028E-1;2.154781520E-1;9.720458984E0
6.546810770E-1;-4.165911078E-1;1.915361285E-1;9.785101891E0
6.596260770E-1;-4.213795066E-1;1.963245422E-1;9.866505623E0
6.645710770E-1;-4.405331016E-1;1.963245422E-1;9.940725327E0
6.695160770E-1;-4.644751251E-1;1.675941199E-1;1.001973438E1
6.744600770E-1;-5.195417404E-1;1.340752989E-1;1.007240677E1
6.792830770E-1;-6.081272364E-1;6.464344263E-2;1.015141487E1
6.843500770E-1;-6.919242740E-1;-7.182605099E-3;1.019690514E1
6.892950770E-1;-8.068459630E-1;-9.097966552E-2;1.023042393E1
6.942317310E-1;-8.451532125E-1;-1.364694983E-1;1.026873112E1
6.991767310E-1;-9.289502501E-1;-2.250549644E-1;1.025197124E1
7.041207310E-1;-9.744400978E-1;-2.920926213E-1;1.024957752E1
7.090657310E-1;-1.015141487E0;-3.016694188E-1;1.026633644E1
7.140107310E-1;-1.034295082E0;-3.591302633E-1;1.024957752E1
7.189557310E-1;-1.022324085E0;-3.926490843E-1;1.022084713E1
7.239007310E-1;-9.840168953E-1;-4.429273009E-1;1.010831928E1
7.288457310E-1;-9.624691010E-1;-4.740519226E-1;1.004607010E1
7.337897310E-1;-8.978256583E-1;-4.836287498E-1;9.976638794E0
7.387347310E-1;-8.714894056E-1;-4.764461517E-1;9.931148529E0
7.436797310E-1;-8.451532125E-1;-4.477157295E-1;9.900024414E0
7.486247310E-1;-8.020575643E-1;-4.094084799E-1;9.895236015E0
7.535697310E-1;-7.733271718E-1;-3.447650373E-1;9.878476143E0
7.585147310E-1;-7.517793179E-1;-2.873041928E-1;9.878476143E0
7.634587310E-1;-7.565677166E-1;-2.346317619E-1;9.888052940E0
7.684037310E-1;-7.302315235E-1;-1.628057212E-1;9.904812813E0
7.733487310E-1;-7.326257229E-1;-1.005564705E-1;9.923966408E0
7.782937310E-1;-7.374141216E-1;-6.224924326E-2;9.943120003E0
7.832387310E-1;-7.374141216E-1;-2.873042040E-2;9.947908401E0
7.881837310E-1;-7.493851185E-1;-2.633621916E-2;9.940725327E0
7.931277310E-1;-7.469909191E-1;-6.464344263E-2;9.938331604E0
7.980696920E-1;-7.469909191E-1;-8.619125932E-2;9.938331604E0
8.030021150E-1;-7.302315235E-1;-1.221042871E-1;9.940725327E0
8.079355770E-1;-7.374141216E-1;-1.460463107E-1;9.938331604E0
8.128805770E-1;-6.799532771E-1;-1.939303428E-1;9.933543205E0
8.178255770E-1;-6.751648784E-1;-2.298433632E-1;9.952696800E0
8.227695770E-1;-6.536170840E-1;-2.681505978E-1;9.971850395E0
8.277145770E-1;-6.272808313E-1;-2.849099934E-1;9.986215591E0
8.326595770E-1;-6.368576288E-1;-2.729389966E-1;1.001015759E1
8.376045770E-1;-6.296750307E-1;-3.160346150E-1;1.003170490E1
8.425495770E-1;-6.200982332E-1;-3.184288144E-1;1.007958889E1
8.474945770E-1;-6.153098345E-1;-3.136404157E-1;1.010353088E1
8.524257300E-1;-6.081272364E-1;-2.968810201E-1;1.017296314E1
8.573707300E-1;-6.272808313E-1;-3.112462163E-1;1.020169353E1
8.623148460E-1;-6.320692301E-1;-3.567360640E-1;1.021366405E1
8.672598460E-1;-6.703764796E-1;-3.998316824E-1;1.020887566E1
8.722048460E-1;-7.445967197E-1;-4.333505034E-1;1.020648193E1
8.771498460E-1;-7.924807668E-1;-4.908113480E-1;1.019211674E1
8.820938460E-1;-8.571242094E-1;-5.602431893E-1;1.017056847E1
8.870388460E-1;-9.097966552E-1;-5.770025849E-1;1.017056847E1
8.919838460E-1;-9.433154464E-1;-6.057330370E-1;1.016578007E1
8.969288460E-1;-9.504981041E-1;-5.985504389E-1;1.019690514E1
9.018738460E-1;-9.552865028E-1;-6.177040339E-1;1.018972206E1
9.068188460E-1;-9.528923035E-1;-6.200982332E-1;1.021127033E1
9.117628460E-1;-9.409212470E-1;-6.536170840E-1;1.021366405E1
9.167078460E-1;-9.241618514E-1;-6.679822803E-1;1.022802925E1
9.216528460E-1;-9.145850539E-1;-6.991068721E-1;1.020648193E1
9.265970380E-1;-9.002198577E-1;-7.254431248E-1;1.017775154E1
9.315420380E-1;-8.714894056E-1;-7.469909191E-1;1.011550236E1
9.364870380E-1;-8.667010069E-1;-7.445967197E-1;1.005804157E1
9.414310380E-1;-8.690952063E-1;-7.326257229E-1;9.974244118E0
9.463760380E-1;-8.355764151E-1;-6.847416759E-1;9.943120003E0
9.513210380E-1;-8.164227605E-1;-6.153098345E-1;9.916783333E0
9.562660380E-1;-7.948749661E-1;-5.291185975E-1;9.909601212E0
9.612110380E-1;-7.757213712E-1;-4.453215301E-1;9.892841339E0
9.661548460E-1;-7.206547260E-1;-3.854664862E-1;9.895236015E0
9.710988460E-1;-6.679822803E-1;-3.423708379E-1;9.907206535E0
9.760438460E-1;-6.272808313E-1;-3.040636182E-1;9.883264542E0
9.809888460E-1;-6.081272364E-1;-2.825157940E-1;9.883264542E0
9.859338460E-1;-5.698199868E-1;-2.633621991E-1;9.892841339E0
9.908788460E-1;-5.410895944E-1;-2.849099934E-1;9.923966408E0
9.958238460E-1;-5.506663918E-1;-2.896983922E-1;9.943120003E0
1.000767846E0;-5.506663918E-1;-3.160346150E-1;9.995792389E0
1.005712846E0;-5.339069963E-1;-3.519476354E-1;1.003649330E1
1.010657846E0;-5.674257874E-1;-3.782838583E-1;1.005804157E1
1.015575846E0;-5.506663918E-1;-4.333505034E-1;1.007719517E1
1.020520846E0;-5.554547906E-1;-4.668693244E-1;1.007480049E1
1.025465846E0;-5.554547906E-1;-4.979939461E-1;1.003888798E1
1.030409846E0;-5.626373887E-1;-5.363011956E-1;9.998186111E0
1.035345884E0;-5.482721925E-1;-5.386953950E-1;9.976638794E0
1.040290884E0;-5.291185975E-1;-5.267243981E-1;9.911994934E0
1.045235884E0;-5.219359994E-1;-4.955997467E-1;9.895236015E0
1.050180884E0;-5.243301988E-1;-4.453215301E-1;9.821015358E0
1.055125884E0;-5.099649429E-1;-4.046200812E-1;9.792284966E0
1.060070884E0;-5.267243981E-1;-3.591302633E-1;9.775525093E0
1.065014884E0;-5.219359994E-1;-3.040636182E-1;9.777919769E0
1.069959884E0;-4.955997467E-1;-2.489969730E-1;9.768342972E0
1.074904884E0;-4.836287498E-1;-2.059013397E-1;9.770736694E0
1.079849884E0;-5.075707436E-1;-2.154781520E-1;9.777919769E0
1.084794884E0;-5.291185975E-1;-2.322375625E-1;9.775525093E0
1.089725269E0;-5.698199868E-1;-2.753331959E-1;9.751583099E0
1.094656499E0;-5.937620401E-1;-3.208230138E-1;9.761159897E0
1.099601499E0;-6.344634295E-1;-3.423708379E-1;9.787496567E0
1.104546499E0;-6.584054828E-1;-3.687070608E-1;9.809044838E0
1.109489692E0;-6.943184733E-1;-4.070142806E-1;9.840168953E0
1.114434692E0;-6.943184733E-1;-3.974374831E-1;9.895236015E0
1.119379692E0;-7.062895298E-1;-4.189853072E-1;9.921571732E0
1.124323692E0;-6.871358752E-1;-4.285621047E-1;9.962273598E0
1.129268692E0;-6.727706790E-1;-3.998316824E-1;1.003170490E1
1.134213692E0;-6.655880809E-1;-4.022258818E-1;1.006043530E1
1.139158692E0;-6.560112834E-1;-3.830722570E-1;1.013704967E1
1.144103692E0;-6.727706790E-1;-3.998316824E-1;1.020648193E1
1.149044269E0;-6.655880809E-1;-3.950432837E-1;1.024957752E1
1.153988269E0;-6.847416759E-1;-4.046200812E-1;1.027351952E1
1.158933269E0;-7.015010715E-1;-3.926490843E-1;1.029985619E1
1.163878269E0;-6.919242740E-1;-4.094084799E-1;1.028788471E1
1.168823269E0;-6.991068721E-1;-4.309563041E-1;1.026154804E1
1.173768269E0;-6.631938815E-1;-4.525041282E-1;1.024478912E1
1.178704922E0;-6.584054828E-1;-4.548983276E-1;1.019690514E1
1.183648922E0;-6.655880809E-1;-4.596867263E-1;1.012268448E1
1.188593922E0;-6.584054828E-1;-4.788403511E-1;1.004607010E1
1.193538922E0;-6.751648784E-1;-4.884171486E-1;9.950302124E0
1.198476076E0;-6.847416759E-1;-4.860229492E-1;9.876082420E0
1.203421076E0;-6.631938815E-1;-4.429273009E-1;9.749189377E0
1.208366076E0;-6.560112834E-1;-4.237737060E-1;9.701305389E0
1.213313076E0;-6.584054828E-1;-3.734954596E-1;9.648633003E0
1.218258076E0;-6.200982332E-1;-3.375824392E-1;9.641449928E0
1.223203076E0;-5.698199868E-1;-2.896983922E-1;9.627084732E0
1.228147076E0;-5.267243981E-1;-2.825157940E-1;9.629479408E0
1.233092076E0;-4.860229492E-1;-2.298433632E-1;9.665391922E0
1.238037076E0;-4.261679053E-1;-2.178723514E-1;9.701305389E0
1.242982076E0;-4.189853072E-1;-2.059013397E-1;9.744400978E0
1.247927076E0;-4.046200812E-1;-1.939303428E-1;9.777919769E0
1.252872076E0;-4.333505034E-1;-1.939303428E-1;9.821015358E0
1.257803576E0;-4.644751251E-1;-1.963245422E-1;9.866505623E0
1.262748576E0;-4.979939461E-1;-2.202665508E-1;9.902418137E0
1.267693576E0;-5.506663918E-1;-2.442085743E-1;9.931148529E0
1.272638576E0;-6.105214357E-1;-2.825157940E-1;9.943120003E0
1.277583576E0;-6.368576288E-1;-2.992752194E-1;9.981427193E0
1.282528576E0;-6.799532771E-1;-3.232172430E-1;1.001494598E1
1.287472576E0;-6.919242740E-1;-3.471592367E-1;1.003888798E1
1.292417576E0;-7.110779285E-1;-3.926490843E-1;1.008916569E1
1.297362576E0;-7.015010715E-1;-4.094084799E-1;1.013226128E1
1.302307576E0;-6.847416759E-1;-4.022258818E-1;1.014902115E1
1.307252576E0;-6.751648784E-1;-4.070142806E-1;1.019211674E1
1.312197576E0;-6.655880809E-1;-3.926490843E-1;1.022084713E1
1.317141576E0;-6.392518282E-1;-3.687070608E-1;1.024239445E1
1.322086576E0;-5.961562395E-1;-3.519476354E-1;1.023521233E1
1.327031576E0;-5.770025849E-1;-3.184288144E-1;1.022802925E1
1.331976269E0;-5.195417404E-1;-3.112462163E-1;1.021366405E1
1.336921269E0;-4.908113480E-1;-2.466027737E-1;1.018253994E1
1.341866269E0;-4.548983276E-1;-1.963245422E-1;1.012747288E1
1.346798845E0;-4.429273009E-1;-1.675941199E-1;1.007001209E1
1.351743845E0;-4.094084799E-1;-1.604115069E-1;9.957485199E0
1.356566845E0;-3.974374831E-1;-1.388636976E-1;9.868899345E0
1.361633845E0;-3.926490843E-1;-1.340752989E-1;9.797073364E0
1.366578845E0;-4.333505034E-1;-1.053448766E-1;9.703699112E0
1.371523845E0;-4.261679053E-1;-8.619125932E-2;9.643844604E0
1.376468845E0;-4.764461517E-1;-1.077390760E-1;9.598354340E0
1.381412845E0;-5.147533417E-1;-8.140286058E-2;9.603142738E0
1.386357845E0;-5.291185975E-1;-7.422025502E-2;9.593565941E0
1.391302845E0;-5.147533417E-1;-9.816227108E-2;9.619902611E0
1.396247845E0;-5.578489900E-1;-7.900865376E-2;9.706093788E0
1.401192845E0;-5.746083856E-1;-7.900865376E-2;9.818621635E0
1.406137845E0;-5.817909837E-1;-8.858546615E-2;9.945513725E0
1.411081845E0;-5.626373887E-1;-7.182604820E-2;1.005085850E1
1.416026845E0;-5.722141862E-1;-9.337386489E-2;1.016099167E1
1.420971845E0;-5.865794420E-1;-1.364694983E-1;1.026154804E1
1.425916845E0;-5.985504389E-1;-1.460463107E-1;1.032140350E1
1.430861845E0;-5.961562395E-1;-1.915361285E-1;1.031422138E1
1.435806845E0;-6.009446383E-1;-2.274491638E-1;1.029027843E1
1.440750845E0;-6.296750307E-1;-2.873041928E-1;1.026154804E1
1.445695845E0;-6.631938815E-1;-3.184288144E-1;1.018014526E1
1.450640845E0;-6.751648784E-1;-3.184288144E-1;1.011310768E1
1.455585845E0;-6.967126727E-1;-3.040636182E-1;1.001494598E1
1.460530845E0;-6.967126727E-1;-2.753331959E-1;9.969455719E0
1.465475845E0;-7.086837292E-1;-2.106897533E-1;9.904812813E0
1.470419845E0;-6.895300746E-1;-1.436520964E-1;9.844957352E0
1.475364845E0;-6.607996821E-1;-9.576806426E-2;9.818621635E0
1.480309845E0;-6.320692301E-1;-6.224924326E-2;9.792284966E0
1.485254845E0;-5.937620401E-1;-1.436521020E-2;9.770736694E0
1.490199845E0;-5.386953950E-1;9.576806799E-3;9.765948296E0
1.495144845E0;-4.788403511E-1;1.675941236E-2;9.770736694E0
1.500088845E0;-4.572925270E-1;1.915361360E-2;9.794678688E0
1.505007153E0;-4.094084799E-1;4.548983276E-2;9.832986832E0
1.509941768E0;-3.734954596E-1;1.436521020E-2;9.859322548E0
1.514886768E0;-3.806780577E-1;-2.394201700E-3;9.861717224E0
1.519831768E0;-3.782838583E-1;-2.394201607E-2;9.840168953E0
1.524776768E0;-3.567360640E-1;-3.591302410E-2;9.811438560E0
1.529720768E0;-3.471592367E-1;-1.675941236E-2;9.816226959E0
1.534665768E0;-3.734954596E-1;2.154781483E-2;9.818621635E0
1.539610768E0;-4.237737060E-1;3.591302410E-2;9.818621635E0
1.544555768E0;-4.357447028E-1;6.224924326E-2;9.840168953E0
1.549500768E0;-4.596867263E-1;8.140286058E-2;9.852140427E0
1.554445768E0;-4.860229492E-1;6.943184882E-2;9.868899345E0
1.559389768E0;-5.195417404E-1;5.267243832E-2;9.868899345E0
1.564334768E0;-5.267243981E-1;4.548983276E-2;9.883264542E0
1.569270845E0;-5.698199868E-1;2.154781483E-2;9.876082420E0
1.574215845E0;-5.770025849E-1;-1.675941236E-2;9.897629738E0
1.579160845E0;-6.057330370E-1;-3.112462163E-2;9.916783333E0
1.584105845E0;-6.009446383E-1;-4.070143029E-2;9.888052940E0
1.589041230E0;-6.296750307E-1;-7.661445439E-2;9.909601212E0
1.593986230E0;-6.440402865E-1;-7.182604820E-2;9.888052940E0
1.598931230E0;-6.536170840E-1;-8.858546615E-2;9.876082420E0
1.603876230E0;-6.631938815E-1;-9.576806426E-2;9.864110947E0
1.608821230E0;-6.512228847E-1;-7.900865376E-2;9.868899345E0
1.613766230E0;-6.416460276E-1;-5.985504389E-2;9.866505623E0
1.618710230E0;-6.200982332E-1;-5.506663769E-2;9.854534149E0
1.623652807E0;-5.865794420E-1;-4.309562966E-2;9.842563629E0
1.628597807E0;-5.386953950E-1;-2.633621916E-2;9.840168953E0
1.633542807E0;-5.171475410E-1;1.197100803E-2;9.832986832E0
1.638487807E0;-4.548983276E-1;3.830722719E-2;9.852140427E0
1.643432807E0;-4.620809257E-1;8.858546615E-2;9.878476143E0
1.648376807E0;-4.381389022E-1;1.197100878E-1;9.885659218E0
1.653321807E0;-4.453215301E-1;1.484405100E-1;9.919178009E0
1.658266807E0;-4.357447028E-1;1.556231081E-1;9.923966408E0
1.663211807E0;-4.381389022E-1;1.795651317E-1;9.938331604E0
1.668156807E0;-4.381389022E-1;1.915361285E-1;9.950302124E0
1.673085345E0;-4.405331016E-1;1.915361285E-1;9.933543205E0
1.678029345E0;-4.237737060E-1;1.532289088E-1;9.928754807E0
1.682974345E0;-4.285621047E-1;1.268926859E-1;9.890447617E0
1.687919345E0;-4.429273009E-1;6.224924326E-2;9.818621635E0
1.692864345E0;-4.405331016E-1;2.154781483E-2;9.773131371E0
1.697809345E0;-4.572925270E-1;-3.591302410E-2;9.703699112E0
1.702754345E0;-4.740519226E-1;-6.943184882E-2;9.639056206E0
1.707698345E0;-5.027823448E-1;-9.576806426E-2;9.595960617E0
1.712643345E0;-5.410895944E-1;-8.619125932E-2;9.567230225E0
1.717570576E0;-5.746083856E-1;-8.140286058E-2;9.569623947E0
1.722515576E0;-5.937620401E-1;-5.027823523E-2;9.579200745E0
1.727460576E0;-6.081272364E-1;-2.873042040E-2;9.615114212E0
1.732405576E0;-5.985504389E-1;1.675941236E-2;9.686940193E0
1.737349576E0;-5.770025849E-1;4.309562966E-2;9.734824181E0
1.742294576E0;-5.554547906E-1;6.703764945E-2;9.818621635E0
1.747117576E0;-5.243301988E-1;7.422025502E-2;9.921571732E0
1.752184576E0;-4.812345505E-1;9.337386489E-2;9.952696800E0
1.757129576E0;-4.716577232E-1;6.703764945E-2;1.000297451E1
1.762074576E0;-4.836287498E-1;6.703764945E-2;1.004128170E1
1.767011345E0;-4.908113480E-1;4.788403213E-2;1.011550236E1
1.771956345E0;-5.099649429E-1;3.591302410E-2;1.018253994E1
1.776901345E0;-5.578489900E-1;7.182605099E-3;1.021845245E1
1.781846345E0;-6.009446383E-1;-9.576806799E-3;1.027351952E1
1.786791345E0;-6.272808313E-1;-3.351882473E-2;1.028549004E1
1.791736345E0;-6.584054828E-1;-1.053448766E-1;1.029746151E1
1.796680345E0;-6.631938815E-1;-1.484405100E-1;1.031182671E1
1.801625345E0;-6.895300746E-1;-2.035071403E-1;1.032379818E1
1.806570345E0;-6.847416759E-1;-2.298433632E-1;1.028788471E1
1.811515345E0;-6.775590777E-1;-2.394201756E-1;1.025436592E1
1.816460345E0;-6.631938815E-1;-2.370259613E-1;1.021366405E1
1.821404460E0;-6.512228847E-1;-2.274491638E-1;1.018493366E1
1.826348460E0;-6.320692301E-1;-1.939303428E-1;1.013944435E1
1.831284191E0;-6.153098345E-1;-1.316810995E-1;1.007719517E1
1.836229191E0;-5.578489900E-1;-7.661445439E-2;1.006522369E1
1.841174191E0;-5.003881454E-1;-1.675941236E-2;1.000297451E1
1.846119191E0;-4.453215301E-1;1.675941236E-2;9.959878922E0
1.850942191E0;-3.830722570E-1;6.703764945E-2;9.876082420E0
1.856009191E0;-3.567360640E-1;8.140286058E-2;9.832986832E0
1.860953191E0;-3.327940404E-1;1.268926859E-1;9.777919769E0
1.865898191E0;-3.040636182E-1;1.460463107E-1;9.746794701E0
1.870843191E0;-3.327940404E-1;1.508347094E-1;9.710882187E0
1.875788191E0;-3.303998411E-1;1.675941199E-1;9.708487511E0
1.880733191E0;-3.543418646E-1;1.723825186E-1;9.691728592E0
1.885678191E0;-3.375824392E-1;1.388636976E-1;9.655815125E0
1.890622191E0;-3.303998411E-1;8.619125932E-2;9.653421402E0
1.895567191E0;-3.256114423E-1;8.619125932E-2;9.682151794E0
1.900512191E0;-3.519476354E-1;5.506663769E-2;9.722852707E0
1.905457191E0;-3.734954596E-1;7.422025502E-2;9.773131371E0
1.910402191E0;-3.878606856E-1;7.182604820E-2;9.821015358E0
1.915347191E0;-3.878606856E-1;5.746084079E-2;9.873687744E0
1.920291191E0;-3.950432837E-1;5.985504389E-2;9.900024414E0
1.925236191E0;-3.974374831E-1;4.548983276E-2;9.890447617E0
1.930181191E0;-3.639186621E-1;1.436521020E-2;9.892841339E0
1.935126191E0;-3.543418646E-1;0.000000000E0;9.835380554E0
1.940071191E0;-3.375824392E-1;-1.436521020E-2;9.813833237E0
1.945016191E0;-3.303998411E-1;-3.351882473E-2;9.782708168E0
1.949960191E0;-3.232172430E-1;-2.873042040E-2;9.742006302E0
1.954905191E0;-3.040636182E-1;0.000000000E0;9.749189377E0
1.959850191E0;-2.873041928E-1;1.436521020E-2;9.773131371E0
1.964795191E0;-2.944868207E-1;2.633621916E-2;9.813833237E0
1.969740191E0;-3.064578176E-1;5.027823523E-2;9.852140427E0
1.974668230E0;-3.495534360E-1;7.182604820E-2;9.907206535E0
1.979612230E0;-3.615244627E-1;1.436521020E-2;9.962273598E0
1.984557230E0;-4.046200812E-1;2.154781483E-2;1.003170490E1
1.989502230E0;-4.740519226E-1;-9.576806799E-3;1.006761837E1
1.994447230E0;-5.267243981E-1;-4.309562966E-2;1.011789608E1
1.999392230E0;-5.578489900E-1;-8.858546615E-2;1.015620327E1
2.004337230E0;-6.009446383E-1;-1.053448766E-1;1.014902115E1
2.009281230E0;-6.679822803E-1;-1.580173075E-1;1.016817474E1
2.014226230E0;-6.967126727E-1;-1.747767180E-1;1.018493366E1
2.019171230E0;-7.182605267E-1;-1.963245422E-1;1.015859795E1
2.024116230E0;-7.374141216E-1;-2.202665508E-1;1.014423275E1
2.029061230E0;-7.613561153E-1;-2.394201756E-1;1.010831928E1
2.034006230E0;-7.924807668E-1;-2.370259613E-1;1.003409958E1
2.038947614E0;-7.852981687E-1;-2.106897533E-1;9.988609314E0
2.043892614E0;-7.829039693E-1;-2.082955539E-1;9.959878922E0
2.048837614E0;-7.445967197E-1;-1.747767180E-1;9.923966408E0
2.053782614E0;-7.110779285E-1;-1.268926859E-1;9.909601212E0
2.058727614E0;-6.272808313E-1;-8.140286058E-2;9.880870819E0
2.063672614E0;-5.698199868E-1;-2.154781483E-2;9.888052940E0
2.068602306E0;-5.027823448E-1;1.915361360E-2;9.902418137E0
2.073547306E0;-4.357447028E-1;1.101332754E-1;9.950302124E0
2.078492306E0;-4.070142806E-1;1.532289088E-1;1.000058079E1
2.083437306E0;-3.902548850E-1;2.035071403E-1;1.001494598E1
2.088382306E0;-3.806780577E-1;1.987187415E-1;1.004846478E1
2.093327306E0;-3.591302633E-1;2.322375625E-1;1.010353088E1
2.098271306E0;-3.447650373E-1;2.178723514E-1;1.012507915E1
2.103216306E0;-3.471592367E-1;2.130839527E-1;1.011789608E1
2.108161306E0;-3.639186621E-1;1.771709323E-1;1.011310768E1
2.113106306E0;-4.022258818E-1;1.508347094E-1;1.008198357E1
2.118051306E0;-4.237737060E-1;1.149216816E-1;1.007958889E1
2.122996306E0;-4.620809257E-1;9.097966552E-2;1.003649330E1
2.127940229E0;-5.099649429E-1;6.703764945E-2;9.998186111E0
2.132885229E0;-5.434837937E-1;2.873042040E-2;1.001255131E1
2.137830229E0;-5.913678408E-1;-7.182605099E-3;1.004128170E1
2.142775229E0;-6.177040339E-1;-4.788403399E-3;1.001973438E1
2.147720229E0;-6.081272364E-1;-3.351882473E-2;1.001733971E1
2.152648499E0;-5.889736414E-1;-5.267243832E-2;1.003888798E1
2.157592499E0;-5.506663918E-1;-7.182604820E-2;1.003170490E1
2.162537499E0;-5.267243981E-1;-6.224924326E-2;1.000776291E1
2.167482499E0;-4.884171486E-1;-6.464344263E-2;9.983820915E0
2.172427499E0;-4.764461517E-1;-3.591302410E-2;9.979032516E0
2.177372499E0;-4.501099288E-1;1.915361360E-2;1.000536919E1
2.182317499E0;-4.165911078E-1;7.900865376E-2;1.001494598E1
2.187261499E0;-3.639186621E-1;9.576806426E-2;1.001015759E1
2.192206499E0;-3.232172430E-1;1.221042871E-1;1.001255131E1
2.197151499E0;-2.896983922E-1;1.340752989E-1;9.986215591E0
2.202096499E0;-2.753331959E-1;1.580173075E-1;9.974244118E0
2.207041499E0;-2.920926213E-1;1.771709323E-1;9.947908401E0
2.211988499E0;-2.992752194E-1;2.035071403E-1;9.926360130E0
2.216933499E0;-3.040636182E-1;1.867477298E-1;9.914389610E0
2.221878499E0;-3.351882398E-1;1.915361285E-1;9.897629738E0
2.226823499E0;-3.615244627E-1;1.891419291E-1;9.873687744E0
2.231768499E0;-3.950432837E-1;1.771709323E-1;9.890447617E0
2.236712499E0;-4.094084799E-1;1.771709323E-1;9.883264542E0
2.241657499E0;-4.165911078E-1;1.556231081E-1;9.885659218E0
2.246602499E0;-4.189853072E-1;1.173158810E-1;9.842563629E0
2.251547499E0;-4.477157295E-1;7.422025502E-2;9.801861763E0
2.256489576E0;-4.572925270E-1;4.548983276E-2;9.765948296E0
2.261431960E0;-4.740519226E-1;2.154781483E-2;9.694122314E0
2.266370576E0;-4.692635238E-1;-1.675941236E-2;9.677363396E0
2.271315576E0;-4.884171486E-1;-3.351882473E-2;9.651026726E0
2.276260576E0;-5.027823448E-1;-5.746084079E-2;9.600749016E0
2.281205576E0;-5.386953950E-1;-9.337386489E-2;9.564835548E0
2.286150576E0;-5.722141862E-1;-1.101332754E-1;9.560047150E0
2.291095576E0;-5.961562395E-1;-1.173158810E-1;9.586383820E0
2.296039576E0;-6.105214357E-1;-1.053448766E-1;9.624691010E0
2.300978845E0;-6.272808313E-1;-9.816227108E-2;9.679757118E0
2.305923845E0;-5.841852427E-1;-7.422025502E-2;9.765948296E0
2.310859345E0;-5.243301988E-1;-5.027823523E-2;9.849745750E0
2.315804345E0;-4.429273009E-1;-4.070143029E-2;9.938331604E0
2.320749345E0;-3.902548850E-1;1.436521020E-2;1.001973438E1
2.325693345E0;-3.327940404E-1;4.548983276E-2;1.008437729E1
2.330638345E0;-3.040636182E-1;6.943184882E-2;1.011310768E1
2.335569999E0;-2.849099934E-1;8.619125932E-2;1.012986755E1
2.340514999E0;-3.136404157E-1;6.703764945E-2;1.009156036E1
2.345459999E0;-3.232172430E-1;7.182604820E-2;1.007240677E1
2.350404999E0;-3.711012602E-1;5.985504389E-2;1.001255131E1
2.355348999E0;-3.950432837E-1;5.267243832E-2;9.962273598E0
2.360293999E0;-4.429273009E-1;3.351882473E-2;9.947908401E0
2.365238999E0;-4.788403511E-1;3.112462163E-2;9.914389610E0
2.370183999E0;-5.219359994E-1;0.000000000E0;9.890447617E0
2.375128999E0;-5.363011956E-1;-3.591302410E-2;9.880870819E0
2.380063922E0;-5.410895944E-1;-5.985504389E-2;9.876082420E0
2.385007922E0;-5.291185975E-1;-9.576806426E-2;9.856928825E0
2.389952922E0;-5.434837937E-1;-6.943184882E-2;9.861717224E0
2.394897922E0;-5.171475410E-1;-5.267243832E-2;9.907206535E0
2.399842922E0;-4.955997467E-1;-2.154781483E-2;9.923966408E0
2.404779614E0;-4.620809257E-1;9.576806799E-3;9.976638794E0
2.409724614E0;-4.261679053E-1;3.351882473E-2;1.001015759E1
2.414668614E0;-3.830722570E-1;6.943184882E-2;1.002691650E1
2.419613614E0;-3.711012602E-1;7.422025502E-2;1.003409958E1
2.424558614E0;-3.782838583E-1;7.422025502E-2;1.002931118E1
2.429503614E0;-3.758896589E-1;1.197100878E-1;9.969455719E0
2.434448614E0;-3.639186621E-1;1.077390760E-1;9.952696800E0
2.439393614E0;-3.519476354E-1;1.005564705E-1;9.888052940E0
2.444305345E0;-3.806780577E-1;1.029506698E-1;9.859322548E0
2.449250345E0;-3.663128614E-1;1.029506698E-1;9.809044838E0
2.454195345E0;-3.591302633E-1;1.077390760E-1;9.782708168E0
2.459140345E0;-3.639186621E-1;1.221042871E-1;9.770736694E0
2.464085345E0;-3.758896589E-1;1.197100878E-1;9.742006302E0
2.469030345E0;-3.711012602E-1;5.267243832E-2;9.744400978E0
2.473974345E0;-3.806780577E-1;2.633621916E-2;9.751583099E0
2.478919345E0;-3.950432837E-1;1.197100803E-2;9.744400978E0
2.483864345E0;-3.950432837E-1;7.182605099E-3;9.792284966E0
2.488809345E0;-4.429273009E-1;-9.576806799E-3;9.856928825E0
2.493754345E0;-4.596867263E-1;-7.182605099E-3;9.923966408E0
2.498699345E0;-4.836287498E-1;1.197100803E-2;1.001255131E1
2.503643345E0;-5.219359994E-1;2.394201607E-2;1.013704967E1
2.508588345E0;-5.482721925E-1;-4.788403399E-3;1.022563553E1
2.513533345E0;-5.506663918E-1;-2.154781483E-2;1.027351952E1
2.518478345E0;-5.530605912E-1;-9.576806426E-2;1.027591324E1
2.523416268E0;-5.722141862E-1;-1.388636976E-1;1.026633644E1
2.528361268E0;-5.770025849E-1;-1.388636976E-1;1.022563553E1
2.533305268E0;-5.913678408E-1;-1.556231081E-1;1.022324085E1
2.538250268E0;-5.554547906E-1;-1.915361285E-1;1.016099167E1
2.543195268E0;-5.482721925E-1;-1.963245422E-1;1.011789608E1
2.548140268E0;-5.434837937E-1;-1.723825186E-1;1.007958889E1
2.553085268E0;-5.123591423E-1;-1.628057212E-1;9.998186111E0
2.558030268E0;-4.908113480E-1;-1.484405100E-1;9.957485199E0
2.562974268E0;-4.764461517E-1;-9.816227108E-2;9.892841339E0
2.567919268E0;-4.453215301E-1;-6.943184882E-2;9.861717224E0
2.572864268E0;-4.261679053E-1;-2.633621916E-2;9.811438560E0
2.577809268E0;-4.070142806E-1;1.197100803E-2;9.775525093E0
2.582754268E0;-3.878606856E-1;4.070143029E-2;9.780313492E0
2.587699268E0;-3.591302633E-1;1.053448766E-1;9.794678688E0
2.592643268E0;-3.687070608E-1;1.340752989E-1;9.806650162E0
2.597588268E0;-3.567360640E-1;1.675941199E-1;9.823410034E0
2.602526845E0;-3.615244627E-1;1.867477298E-1;9.876082420E0
2.607462537E0;-3.854664862E-1;1.867477298E-1;9.897629738E0
2.612407537E0;-4.094084799E-1;1.532289088E-1;9.919178009E0
2.617230537E0;-4.333505034E-1;1.484405100E-1;9.911994934E0
2.622296537E0;-4.692635238E-1;1.292868853E-1;9.919178009E0
2.627241537E0;-4.764461517E-1;1.268926859E-1;9.900024414E0
2.632186537E0;-4.860229492E-1;9.576806426E-2;9.859322548E0
2.637131537E0;-4.764461517E-1;4.309562966E-2;9.813833237E0
2.642076537E0;-4.788403511E-1;3.591302410E-2;9.751583099E0
2.647021537E0;-4.668693244E-1;1.436521020E-2;9.670180321E0
2.651965537E0;-4.525041282E-1;1.197100803E-2;9.615114212E0
2.656910537E0;-4.620809257E-1;9.576806799E-3;9.603142738E0
2.661855537E0;-4.429273009E-1;1.436521020E-2;9.610325813E0
2.666800537E0;-4.094084799E-1;5.027823523E-2;9.624691010E0
2.671745537E0;-3.830722570E-1;9.337386489E-2;9.674968719E0
2.676690537E0;-3.782838583E-1;1.532289088E-1;9.765948296E0
2.681635537E0;-3.543418646E-1;1.628057212E-1;9.904812813E0
2.686579537E0;-3.136404157E-1;1.604115069E-1;1.002452278E1
2.691524537E0;-3.016694188E-1;1.484405100E-1;1.011310768E1
2.696469537E0;-3.280056417E-1;1.221042871E-1;1.014902115E1
2.701414537E0;-3.112462163E-1;8.379705995E-2;1.015620327E1
2.706359537E0;-3.184288144E-1;2.633621916E-2;1.016578007E1
2.711304537E0;-3.495534360E-1;-3.112462163E-2;1.013226128E1
2.716248537E0;-3.878606856E-1;-6.703764945E-2;1.007480049E1
2.721193537E0;-4.285621047E-1;-8.619125932E-2;1.004607010E1
2.726136768E0;-4.692635238E-1;-1.077390760E-1;9.974244118E0
2.731081768E0;-5.003881454E-1;-1.053448766E-1;9.928754807E0
2.736026768E0;-5.123591423E-1;-9.337386489E-2;9.890447617E0
2.740971768E0;-4.979939461E-1;-5.506663769E-2;9.892841339E0
2.745915768E0;-5.003881454E-1;-3.351882473E-2;9.883264542E0
2.750860768E0;-4.644751251E-1;-2.394201607E-2;9.880870819E0
2.755805768E0;-4.189853072E-1;-1.197100803E-2;9.895236015E0
2.760750768E0;-3.615244627E-1;-2.394201700E-3;9.914389610E0
2.765695768E0;-3.591302633E-1;0.000000000E0;9.947908401E0
2.770640768E0;-3.471592367E-1;-9.576806799E-3;9.983820915E0
2.775579498E0;-3.471592367E-1;-1.197100803E-2;1.002931118E1
2.780524498E0;-3.687070608E-1;-1.915361360E-2;1.006522369E1
2.785469498E0;-4.213795066E-1;-1.197100803E-2;1.009874249E1
2.790414498E0;-4.525041282E-1;-3.830722719E-2;1.010353088E1
2.795359498E0;-4.979939461E-1;-4.070143029E-2;1.009874249E1
2.800304498E0;-5.243301988E-1;-7.182604820E-2;1.007480049E1
2.805241921E0;-5.219359994E-1;-8.140286058E-2;1.004846478E1
2.810186921E0;-5.315127969E-1;-7.900865376E-2;9.981427193E0
2.815131921E0;-5.291185975E-1;-1.005564705E-1;9.923966408E0
2.820076921E0;-5.099649429E-1;-9.576806426E-2;9.880870819E0
2.825021921E0;-5.147533417E-1;-7.900865376E-2;9.842563629E0
2.829966921E0;-4.764461517E-1;-5.506663769E-2;9.801861763E0
2.834905921E0;-4.477157295E-1;-4.070143029E-2;9.780313492E0
2.839850921E0;-4.094084799E-1;-2.154781483E-2;9.794678688E0
2.844795921E0;-4.022258818E-1;-2.394201700E-3;9.806650162E0
2.849740921E0;-3.806780577E-1;2.633621916E-2;9.847352028E0
2.854678729E0;-3.351882398E-1;5.985504389E-2;9.883264542E0
2.859623729E0;-3.184288144E-1;7.900865376E-2;9.938331604E0
2.864567729E0;-3.040636182E-1;8.619125932E-2;9.986215591E0
2.869512729E0;-2.849099934E-1;7.182604820E-2;1.000058079E1
2.874457729E0;-2.753331959E-1;5.027823523E-2;1.000536919E1
2.879397998E0;-2.705447972E-1;2.154781483E-2;9.983820915E0
2.884342998E0;-3.136404157E-1;7.182605099E-3;9.955090523E0
2.889165998E0;-3.399766386E-1;1.197100803E-2;9.923966408E0
2.894231998E0;-3.782838583E-1;-4.788403399E-3;9.914389610E0
2.899176998E0;-4.094084799E-1;-7.182605099E-3;9.866505623E0
2.904121998E0;-4.165911078E-1;-2.394201607E-2;9.842563629E0
2.909066998E0;-4.261679053E-1;-3.351882473E-2;9.818621635E0
2.914011998E0;-4.285621047E-1;-9.576806799E-3;9.799467087E0
2.918956998E0;-4.237737060E-1;2.394201700E-3;9.806650162E0
2.923896229E0;-3.854664862E-1;0.000000000E0;9.823410034E0
2.928841229E0;-3.806780577E-1;2.394201607E-2;9.835380554E0
2.933764383E0;-3.567360640E-1;2.873042040E-2;9.864110947E0
2.938709383E0;-3.375824392E-1;3.591302410E-2;9.919178009E0
2.943654383E0;-3.423708379E-1;1.436521020E-2;9.959878922E0
2.948599383E0;-3.303998411E-1;4.788403399E-3;1.000297451E1
2.953543383E0;-3.088520169E-1;-9.576806799E-3;1.001255131E1
2.958488383E0;-3.327940404E-1;2.394201700E-3;1.004846478E1
2.963433383E0;-3.782838583E-1;-3.351882473E-2;1.009634876E1
2.968378383E0;-3.974374831E-1;-7.900865376E-2;1.008437729E1
2.973323383E0;-4.237737060E-1;-1.197100878E-1;1.008677197E1
2.978268383E0;-4.692635238E-1;-1.388636976E-1;1.007240677E1
2.983212383E0;-4.836287498E-1;-1.580173075E-1;1.002931118E1
2.988157383E0;-5.171475410E-1;-1.628057212E-1;9.991003990E0
2.993102383E0;-5.339069963E-1;-1.580173075E-1;9.945513725E0
2.998047383E0;-5.195417404E-1;-1.556231081E-1;9.907206535E0
3.002992383E0;-4.812345505E-1;-1.412578970E-1;9.830592155E0
3.007937383E0;-4.596867263E-1;-9.097966552E-2;9.761159897E0
3.012863613E0;-4.094084799E-1;-6.943184882E-2;9.727641106E0
3.017808613E0;-3.878606856E-1;-4.788403399E-3;9.679757118E0
3.022753613E0;-3.495534360E-1;4.070143029E-2;9.655815125E0
3.027698613E0;-3.112462163E-1;6.703764945E-2;9.624691010E0
3.032643613E0;-2.753331959E-1;1.125274822E-1;9.619902611E0
3.037588613E0;-2.011129409E-1;1.340752989E-1;9.648633003E0
3.042532613E0;-1.556231081E-1;1.891419291E-1;9.653421402E0
3.047477613E0;-1.244984865E-1;1.891419291E-1;9.686940193E0
3.052422613E0;-1.125274822E-1;1.963245422E-1;9.686940193E0
3.057367613E0;-1.268926859E-1;1.867477298E-1;9.722852707E0
3.062312613E0;-1.699883193E-1;1.939303428E-1;9.746794701E0
3.067257613E0;-2.250549644E-1;1.604115069E-1;9.761159897E0
3.072201613E0;-2.849099934E-1;1.221042871E-1;9.768342972E0
3.077146613E0;-3.447650373E-1;6.703764945E-2;9.744400978E0
3.082091613E0;-3.926490843E-1;7.182605099E-3;9.734824181E0
3.087036613E0;-4.357447028E-1;-2.873042040E-2;9.722852707E0
3.091980498E0;-4.596867263E-1;-6.943184882E-2;9.727641106E0
3.096925498E0;-4.620809257E-1;-1.005564705E-1;9.739612579E0
3.101869498E0;-4.932055473E-1;-1.244984865E-1;9.730035782E0
3.106813190E0;-4.955997467E-1;-1.484405100E-1;9.761159897E0
3.111743613E0;-4.979939461E-1;-1.484405100E-1;9.787496567E0
3.116688613E0;-4.788403511E-1;-1.604115069E-1;9.816226959E0
3.121633613E0;-4.525041282E-1;-1.628057212E-1;9.868899345E0
3.126578613E0;-4.548983276E-1;-1.651999205E-1;9.919178009E0
3.131522613E0;-4.333505034E-1;-1.867477298E-1;9.967061996E0
3.136453383E0;-4.094084799E-1;-1.867477298E-1;1.000058079E1
3.141398383E0;-4.189853072E-1;-1.723825186E-1;1.002452278E1
3.146343383E0;-4.477157295E-1;-1.699883193E-1;1.007958889E1
3.151288383E0;-4.788403511E-1;-1.556231081E-1;1.010831928E1
3.156233383E0;-4.788403511E-1;-1.651999205E-1;1.008916569E1
3.161178383E0;-5.027823448E-1;-1.628057212E-1;1.003409958E1
3.166122383E0;-5.267243981E-1;-1.388636976E-1;9.979032516E0
3.171067383E0;-5.363011956E-1;-1.268926859E-1;9.871294022E0
3.176012383E0;-5.099649429E-1;-8.858546615E-2;9.737217903E0
3.180953421E0;-4.812345505E-1;-5.027823523E-2;9.600749016E0
3.185898421E0;-4.525041282E-1;-3.591302410E-2;9.478644371E0
3.190843421E0;-4.046200812E-1;1.675941236E-2;9.363722801E0
3.195787421E0;-3.471592367E-1;5.506663769E-2;9.258378029E0
3.200732421E0;-2.896983922E-1;1.077390760E-1;9.176975250E0
3.205677421E0;-2.346317619E-1;1.316810995E-1;9.085995674E0
3.210624421E0;-1.747767180E-1;1.819593310E-1;9.023746490E0
3.215569421E0;-1.292868853E-1;1.939303428E-1;8.997409821E0
3.220514421E0;-1.173158810E-1;1.867477298E-1;9.018958092E0
3.225459421E0;-9.337386489E-2;2.035071403E-1;9.059659004E0
3.230404421E0;-1.005564705E-1;2.011129409E-1;9.141061783E0
3.235349421E0;-1.149216816E-1;1.915361285E-1;9.251194954E0
3.240293421E0;-1.268926859E-1;1.819593310E-1;9.404424667E0
3.245238421E0;-1.795651317E-1;1.508347094E-1;9.524134636E0
3.250183421E0;-2.298433632E-1;8.619125932E-2;9.658209801E0
3.255128421E0;-2.753331959E-1;1.675941236E-2;9.749189377E0
3.260073421E0;-3.303998411E-1;-2.154781483E-2;9.830592155E0
3.265018421E0;-3.782838583E-1;-9.576806426E-2;9.871294022E0
3.269958383E0;-4.405331016E-1;-1.604115069E-1;9.878476143E0
3.274903152E0;-5.099649429E-1;-2.130839527E-1;9.849745750E0
3.279848152E0;-5.386953950E-1;-2.633621991E-1;9.797073364E0
3.284793152E0;-5.841852427E-1;-3.040636182E-1;9.780313492E0
3.289738152E0;-6.416460276E-1;-3.232172430E-1;9.696516991E0
3.294683152E0;-6.607996821E-1;-3.184288144E-1;9.607931137E0
3.299627152E0;-6.655880809E-1;-2.825157940E-1;9.545681953E0
3.304572152E0;-6.368576288E-1;-2.442085743E-1;9.483432770E0
3.309513306E0;-6.129156351E-1;-1.915361285E-1;9.469067574E0
3.314458306E0;-5.195417404E-1;-1.460463107E-1;9.433155060E0
3.319391421E0;-4.596867263E-1;-1.029506698E-1;9.404424667E0
3.324336421E0;-3.711012602E-1;-6.703764945E-2;9.409213066E0
3.329280421E0;-3.064578176E-1;-2.394201700E-3;9.430760384E0
3.334225421E0;-2.394201756E-1;5.267243832E-2;9.440337181E0
3.339170421E0;-1.795651317E-1;1.149216816E-1;9.509769440E0
3.344115421E0;-1.651999205E-1;1.316810995E-1;9.569623947E0
3.349060421E0;-1.604115069E-1;1.795651317E-1;9.605537415E0
3.354005421E0;-1.436520964E-1;1.699883193E-1;9.667786598E0
3.358949421E0;-1.675941199E-1;1.484405100E-1;9.698910713E0
3.363894421E0;-1.843535304E-1;1.268926859E-1;9.715670586E0
3.368839421E0;-2.059013397E-1;7.661445439E-2;9.715670586E0
3.373772767E0;-2.585737705E-1;9.576806799E-3;9.686940193E0
3.378717767E0;-3.208230138E-1;-5.746084079E-2;9.653421402E0
3.383662767E0;-4.046200812E-1;-1.484405100E-1;9.567230225E0
3.388606767E0;-4.644751251E-1;-1.819593310E-1;9.481039047E0
3.393551767E0;-5.051765442E-1;-2.154781520E-1;9.399636269E0
3.398477575E0;-5.363011956E-1;-2.226607651E-1;9.289502144E0
3.403422575E0;-5.363011956E-1;-2.418143749E-1;9.229647636E0
3.408367575E0;-5.339069963E-1;-2.082955539E-1;9.169792175E0
3.413312575E0;-5.099649429E-1;-1.580173075E-1;9.172186852E0
3.418256575E0;-4.501099288E-1;-1.077390760E-1;9.196128845E0
3.423201575E0;-4.165911078E-1;-5.267243832E-2;9.239224434E0
3.428146575E0;-3.447650373E-1;3.112462163E-2;9.323021889E0
3.433091575E0;-2.920926213E-1;7.661445439E-2;9.423578262E0
3.438036575E0;-2.370259613E-1;9.816227108E-2;9.507374763E0
3.442981575E0;-2.082955539E-1;1.316810995E-1;9.583989143E0
3.447925575E0;-1.723825186E-1;1.316810995E-1;9.653421402E0
3.452870575E0;-1.651999205E-1;1.077390760E-1;9.727641106E0
3.457815575E0;-2.035071403E-1;7.661445439E-2;9.785101891E0
3.462760575E0;-2.226607651E-1;6.464344263E-2;9.811438560E0
3.467705575E0;-2.705447972E-1;-1.436521020E-2;9.785101891E0
3.472650575E0;-3.639186621E-1;-5.506663769E-2;9.763554573E0
3.477595575E0;-4.094084799E-1;-1.244984865E-1;9.706093788E0
3.482539575E0;-4.453215301E-1;-1.508347094E-1;9.627084732E0
3.487484575E0;-4.788403511E-1;-1.723825186E-1;9.562441826E0
3.492429575E0;-5.075707436E-1;-1.915361285E-1;9.471462250E0
3.497374575E0;-5.171475410E-1;-2.011129409E-1;9.404424667E0
3.502319575E0;-4.932055473E-1;-1.939303428E-1;9.315838814E0
3.507264575E0;-4.644751251E-1;-1.460463107E-1;9.272743225E0
3.512208575E0;-4.070142806E-1;-9.576806426E-2;9.241618156E0
3.517153575E0;-3.519476354E-1;-1.436521020E-2;9.246406555E0
3.522098575E0;-2.801215947E-1;4.788403213E-2;9.265560150E0
3.527043575E0;-2.298433632E-1;1.077390760E-1;9.294290543E0
3.531988575E0;-1.891419291E-1;1.843535304E-1;9.351752281E0
3.536933575E0;-1.675941199E-1;2.011129409E-1;9.421183586E0
3.541877575E0;-1.628057212E-1;2.274491638E-1;9.481039047E0
3.546822575E0;-1.532289088E-1;2.489969730E-1;9.538499832E0
3.551767575E0;-1.436520964E-1;2.370259613E-1;9.567230225E0
3.556694767E0;-1.771709323E-1;2.035071403E-1;9.627084732E0
3.561639767E0;-2.059013397E-1;1.460463107E-1;9.619902611E0
3.566461767E0;-2.250549644E-1;1.005564705E-1;9.615114212E0
3.571528767E0;-2.777273953E-1;4.548983276E-2;9.624691010E0
3.576473767E0;-2.968810201E-1;7.182605099E-3;9.560047150E0
3.581418767E0;-3.303998411E-1;-3.351882473E-2;9.504981041E0
3.586363767E0;-3.806780577E-1;-6.943184882E-2;9.457097054E0
3.591308767E0;-3.950432837E-1;-6.943184882E-2;9.402029991E0
3.596253767E0;-4.165911078E-1;-8.140286058E-2;9.344569206E0
3.601197767E0;-4.381389022E-1;-7.182604820E-2;9.251194954E0
3.606142498E0;-4.118026793E-1;-4.548983276E-2;9.220070839E0
3.611087498E0;-3.950432837E-1;7.182605099E-3;9.210494041E0
3.616032498E0;-3.758896589E-1;5.267243832E-2;9.200917244E0
3.620977498E0;-3.447650373E-1;7.182604820E-2;9.188945770E0
3.625922498E0;-2.944868207E-1;9.816227108E-2;9.196128845E0
3.630866498E0;-2.537853718E-1;1.316810995E-1;9.220070839E0
3.635811498E0;-2.202665508E-1;1.292868853E-1;9.220070839E0
3.640756498E0;-2.130839527E-1;1.125274822E-1;9.236829758E0
3.645701498E0;-2.418143749E-1;1.053448766E-1;9.258378029E0
3.650642805E0;-2.920926213E-1;9.576806426E-2;9.284713745E0
3.655561190E0;-3.375824392E-1;8.379705995E-2;9.279925346E0
3.660505190E0;-3.758896589E-1;5.746084079E-2;9.299078941E0
3.665450190E0;-4.070142806E-1;1.436521020E-2;9.318233490E0
3.670395190E0;-4.381389022E-1;-7.182605099E-3;9.330204010E0
3.675340190E0;-4.572925270E-1;-5.267243832E-2;9.339780807E0
3.680285190E0;-4.429273009E-1;-8.619125932E-2;9.358934402E0
3.685230190E0;-4.333505034E-1;-7.661445439E-2;9.361329079E0
3.690174190E0;-4.022258818E-1;-8.140286058E-2;9.356540680E0
3.695119190E0;-3.758896589E-1;-1.125274822E-1;9.370905876E0
3.700064190E0;-3.567360640E-1;-1.101332754E-1;9.349357605E0
3.705006844E0;-3.591302633E-1;-1.053448766E-1;9.306262016E0
3.709951844E0;-3.663128614E-1;-1.077390760E-1;9.301473618E0
3.714896344E0;-3.926490843E-1;-8.858546615E-2;9.272743225E0
3.719718344E0;-3.998316824E-1;-7.661445439E-2;9.229647636E0
3.724762382E0;-3.806780577E-1;-5.985504389E-2;9.205705643E0
3.729707382E0;-3.854664862E-1;-3.112462163E-2;9.181763649E0
3.734652382E0;-3.711012602E-1;-1.197100803E-2;9.157821655E0
3.739596267E0;-3.471592367E-1;9.576806799E-3;9.174580574E0
3.744524151E0;-3.256114423E-1;3.112462163E-2;9.193734169E0
3.749468151E0;-3.136404157E-1;6.224924326E-2;9.198522568E0
3.754413151E0;-2.968810201E-1;8.140286058E-2;9.234436035E0
3.759358151E0;-2.944868207E-1;8.140286058E-2;9.248801231E0
3.764303151E0;-2.968810201E-1;8.140286058E-2;9.248801231E0
3.769248151E0;-3.088520169E-1;7.422025502E-2;9.232041359E0
3.774193151E0;-3.112462163E-1;4.788403213E-2;9.208099365E0
3.779137151E0;-3.160346150E-1;4.548983276E-2;9.167398453E0
3.784082151E0;-3.184288144E-1;2.394201607E-2;9.143456459E0
3.789027151E0;-3.423708379E-1;1.915361360E-2;9.117119789E0
3.793972151E0;-3.519476354E-1;-2.394201700E-3;9.064447403E0
3.798917151E0;-3.567360640E-1;-2.394201607E-2;9.054870605E0
3.803862151E0;-3.303998411E-1;-9.576806799E-3;9.062053680E0
3.808768536E0;-3.423708379E-1;-1.197100803E-2;9.062053680E0
3.813713536E0;-3.256114423E-1;-1.675941236E-2;9.102754593E0
3.818658536E0;-3.280056417E-1;2.394201700E-3;9.145850182E0
3.823603536E0;-3.303998411E-1;4.788403399E-3;9.229647636E0
3.828548536E0;-3.567360640E-1;-9.576806799E-3;9.258378029E0
3.833493536E0;-3.495534360E-1;9.576806799E-3;9.320627213E0
3.838437536E0;-3.519476354E-1;-7.182605099E-3;9.363722801E0
3.843382536E0;-3.567360640E-1;-2.394201607E-2;9.380482674E0
3.848327536E0;-3.495534360E-1;-5.746084079E-2;9.404424667E0
3.853150536E0;-3.519476354E-1;-3.591302410E-2;9.423578262E0
3.858217536E0;-3.591302633E-1;-4.788403213E-2;9.418789864E0
3.863162536E0;-3.639186621E-1;-4.309562966E-2;9.406818390E0
3.868106536E0;-3.734954596E-1;-1.915361360E-2;9.409213066E0
3.873051536E0;-3.854664862E-1;2.394201700E-3;9.409213066E0
3.877996536E0;-3.878606856E-1;9.576806799E-3;9.397241592E0
3.882941536E0;-3.639186621E-1;4.309562966E-2;9.392453194E0
3.887886536E0;-3.758896589E-1;8.140286058E-2;9.397241592E0
3.892831536E0;-3.639186621E-1;1.029506698E-1;9.387664795E0
3.897775536E0;-3.208230138E-1;1.053448766E-1;9.394847870E0
3.902720536E0;-2.944868207E-1;1.244984865E-1;9.378087997E0
3.907665536E0;-2.681505978E-1;1.029506698E-1;9.330204010E0
3.912610536E0;-2.753331959E-1;8.140286058E-2;9.327810287E0
3.917555536E0;-2.849099934E-1;8.140286058E-2;9.313444138E0
3.922500536E0;-2.920926213E-1;8.140286058E-2;9.311050415E0
3.927444536E0;-3.088520169E-1;6.943184882E-2;9.342175484E0
3.932389536E0;-3.423708379E-1;6.224924326E-2;9.363722801E0
3.937334536E0;-3.495534360E-1;7.900865376E-2;9.423578262E0
3.942279536E0;-3.567360640E-1;6.224924326E-2;9.483432770E0
3.947224536E0;-3.711012602E-1;8.619125932E-2;9.569623947E0
3.952168420E0;-3.591302633E-1;8.858546615E-2;9.643844604E0
3.957112420E0;-3.782838583E-1;6.464344263E-2;9.662998199E0
3.962057420E0;-3.639186621E-1;4.788403399E-3;9.665391922E0
3.966999805E0;-3.782838583E-1;2.394201700E-3;9.670180321E0
3.971944805E0;-3.830722570E-1;-2.394201607E-2;9.631873131E0
3.976889805E0;-3.830722570E-1;-3.351882473E-2;9.579200745E0
3.981834805E0;-3.758896589E-1;-2.873042040E-2;9.540893555E0
3.986779805E0;-3.974374831E-1;-4.548983276E-2;9.485827446E0
3.991601805E0;-3.734954596E-1;-9.576806799E-3;9.418789864E0
3.996668805E0;-3.974374831E-1;1.197100803E-2;9.392453194E0
4.001613805E0;-4.022258818E-1;2.394201700E-3;9.387664795E0
4.006556844E0;-4.094084799E-1;2.154781483E-2;9.392453194E0
4.011501844E0;-3.974374831E-1;2.394201607E-2;9.430760384E0
4.016444382E0;-3.926490843E-1;2.394201607E-2;9.433155060E0
4.021388382E0;-4.118026793E-1;3.830722719E-2;9.514557838E0
4.026333382E0;-3.758896589E-1;4.788403213E-2;9.560047150E0
4.031278382E0;-3.758896589E-1;5.267243832E-2;9.603142738E0
4.036223382E0;-3.615244627E-1;8.140286058E-2;9.648633003E0
4.041159920E0;-3.399766386E-1;6.943184882E-2;9.662998199E0
4.046104920E0;-3.160346150E-1;8.379705995E-2;9.617507935E0
4.050926920E0;-3.064578176E-1;6.464344263E-2;9.576807022E0
4.055993920E0;-3.088520169E-1;5.267243832E-2;9.507374763E0
4.060938920E0;-3.016694188E-1;5.506663769E-2;9.416395187E0
4.065883920E0;-3.064578176E-1;5.506663769E-2;9.332598686E0
4.070828920E0;-2.968810201E-1;5.027823523E-2;9.224859238E0
4.075758690E0;-2.849099934E-1;8.140286058E-2;9.129091263E0
4.080702690E0;-2.873041928E-1;7.900865376E-2;9.064447403E0
4.085647690E0;-2.657563984E-1;9.576806426E-2;9.042900085E0
4.090592690E0;-2.561795712E-1;1.053448766E-1;9.011775017E0
4.095537690E0;-2.346317619E-1;1.244984865E-1;9.054870605E0
4.100482690E0;-2.130839527E-1;1.532289088E-1;9.090784073E0
4.105422882E0;-2.106897533E-1;1.532289088E-1;9.167398453E0
4.110366882E0;-1.963245422E-1;1.771709323E-1;9.236829758E0
4.115309074E0;-1.939303428E-1;1.675941199E-1;9.315838814E0
4.120254074E0;-2.011129409E-1;1.556231081E-1;9.356540680E0
4.125199074E0;-1.915361285E-1;1.221042871E-1;9.373299599E0
4.130144074E0;-1.795651317E-1;9.816227108E-2;9.385271072E0
4.135089074E0;-2.130839527E-1;5.985504389E-2;9.385271072E0
4.140033074E0;-2.274491638E-1;3.591302410E-2;9.390059471E0
4.144978074E0;-2.466027737E-1;2.394201700E-3;9.382876396E0
4.149923074E0;-2.944868207E-1;2.394201700E-3;9.375694275E0
4.154868074E0;-3.088520169E-1;9.576806799E-3;9.368511200E0
4.159813074E0;-3.471592367E-1;2.394201700E-3;9.351752281E0
4.164758074E0;-3.806780577E-1;7.182605099E-3;9.363722801E0
4.169702074E0;-4.285621047E-1;-7.182605099E-3;9.378087997E0
4.174636343E0;-4.525041282E-1;-2.633621916E-2;9.361329079E0
4.179581343E0;-4.525041282E-1;-4.070143029E-2;9.373299599E0
4.184526343E0;-4.620809257E-1;-4.309562966E-2;9.363722801E0
4.189471343E0;-4.596867263E-1;-7.182604820E-2;9.354146004E0
4.194416343E0;-4.477157295E-1;-1.029506698E-1;9.313444138E0
4.199360343E0;-4.381389022E-1;-1.029506698E-1;9.282320023E0
4.204305343E0;-4.357447028E-1;-9.576806426E-2;9.263166428E0
4.209253343E0;-4.237737060E-1;-3.591302410E-2;9.227252960E0
4.214197343E0;-4.094084799E-1;-4.788403399E-3;9.191340446E0
4.219142343E0;-3.806780577E-1;2.873042040E-2;9.169792175E0
4.224087343E0;-3.878606856E-1;9.576806426E-2;9.141061783E0
4.229032343E0;-3.615244627E-1;1.221042871E-1;9.131484985E0
4.233977343E0;-3.351882398E-1;1.436520964E-1;9.133879662E0
4.238909959E0;-3.303998411E-1;1.843535304E-1;9.148244858E0
4.243853959E0;-3.064578176E-1;1.915361285E-1;9.153033257E0
4.248798959E0;-3.016694188E-1;1.915361285E-1;9.174580574E0
4.253743959E0;-2.753331959E-1;1.699883193E-1;9.160215378E0
4.258688959E0;-2.633621991E-1;1.675941199E-1;9.160215378E0
4.263633959E0;-2.777273953E-1;1.604115069E-1;9.181763649E0
4.268578959E0;-2.873041928E-1;1.436520964E-1;9.208099365E0
4.273522959E0;-2.944868207E-1;1.316810995E-1;9.198522568E0
4.278467959E0;-3.256114423E-1;1.029506698E-1;9.191340446E0
4.283412959E0;-3.711012602E-1;7.661445439E-2;9.181763649E0
4.288353536E0;-4.261679053E-1;2.394201607E-2;9.200917244E0
4.293298536E0;-4.357447028E-1;2.394201700E-3;9.203310966E0
4.298243536E0;-4.644751251E-1;-3.351882473E-2;9.205705643E0
4.303188536E0;-5.051765442E-1;-4.309562966E-2;9.208099365E0
4.308119574E0;-5.027823448E-1;-6.703764945E-2;9.217676163E0
4.313064574E0;-4.908113480E-1;-6.703764945E-2;9.222464561E0
4.318009574E0;-4.908113480E-1;-6.943184882E-2;9.246406555E0
4.322954574E0;-5.027823448E-1;-5.985504389E-2;9.287108421E0
4.327899574E0;-5.075707436E-1;-4.070143029E-2;9.368511200E0
4.332844574E0;-4.884171486E-1;-2.154781483E-2;9.430760384E0
4.337788574E0;-4.716577232E-1;-1.197100803E-2;9.483432770E0
4.342733574E0;-4.261679053E-1;3.591302410E-2;9.548076630E0
4.347678574E0;-3.902548850E-1;4.548983276E-2;9.583989143E0
4.352623574E0;-3.399766386E-1;3.351882473E-2;9.610325813E0
4.357564382E0;-2.944868207E-1;3.830722719E-2;9.617507935E0
4.362509382E0;-2.801215947E-1;3.830722719E-2;9.610325813E0
4.367453382E0;-2.777273953E-1;4.548983276E-2;9.586383820E0
4.372398382E0;-2.801215947E-1;5.985504389E-2;9.555258751E0
4.377343382E0;-2.849099934E-1;4.548983276E-2;9.500192642E0
4.382288382E0;-2.944868207E-1;4.070143029E-2;9.440337181E0
4.387233382E0;-2.968810201E-1;4.070143029E-2;9.349357605E0
4.392178036E0;-2.992752194E-1;3.351882473E-2;9.282320023E0
4.397122036E0;-3.040636182E-1;5.985504389E-2;9.188945770E0
4.402067036E0;-3.184288144E-1;6.943184882E-2;9.176975250E0
4.407012036E0;-3.375824392E-1;5.985504389E-2;9.150638580E0
4.411945266E0;-3.327940404E-1;9.097966552E-2;9.160215378E0
4.416890266E0;-3.375824392E-1;1.029506698E-1;9.174580574E0
4.421835266E0;-3.303998411E-1;1.316810995E-1;9.210494041E0
4.426779266E0;-3.280056417E-1;1.268926859E-1;9.258378029E0
4.431724266E0;-2.944868207E-1;1.436520964E-1;9.318233490E0
4.436662151E0;-2.920926213E-1;1.268926859E-1;9.368511200E0
4.441607151E0;-2.801215947E-1;1.101332754E-1;9.402029991E0
4.446552151E0;-2.849099934E-1;7.661445439E-2;9.433155060E0
4.451497151E0;-2.992752194E-1;4.788403213E-2;9.454702377E0
4.456441151E0;-3.567360640E-1;2.633621916E-2;9.473855972E0
4.461386151E0;-3.878606856E-1;2.394201700E-3;9.497797966E0
4.466331151E0;-4.285621047E-1;-2.154781483E-2;9.500192642E0
4.471276151E0;-4.572925270E-1;-2.633621916E-2;9.521739960E0
4.476221151E0;-4.548983276E-1;-5.267243832E-2;9.500192642E0
4.481164459E0;-4.620809257E-1;-5.027823523E-2;9.461885452E0
4.485986459E0;-4.548983276E-1;-7.422025502E-2;9.421183586E0
4.491042151E0;-4.237737060E-1;-5.985504389E-2;9.380482674E0
4.495987151E0;-4.022258818E-1;-4.788403213E-2;9.349357605E0
4.500932151E0;-3.782838583E-1;-2.154781483E-2;9.318233490E0
4.505877151E0;-3.758896589E-1;7.182605099E-3;9.303867340E0
4.510822151E0;-3.687070608E-1;3.351882473E-2;9.299078941E0
4.515766151E0;-3.423708379E-1;8.140286058E-2;9.282320023E0
4.520711151E0;-3.280056417E-1;1.388636976E-1;9.265560150E0
4.525656151E0;-3.016694188E-1;1.675941199E-1;9.275136948E0
4.530601151E0;-2.513911724E-1;1.867477298E-1;9.291896820E0
4.535529843E0;-2.130839527E-1;2.202665508E-1;9.287108421E0
4.540474843E0;-1.795651317E-1;1.963245422E-1;9.301473618E0
4.545418843E0;-1.460463107E-1;2.154781520E-1;9.299078941E0
4.550363843E0;-1.580173075E-1;2.106897533E-1;9.306262016E0
4.555301920E0;-1.723825186E-1;1.987187415E-1;9.313444138E0
4.560244420E0;-1.843535304E-1;1.723825186E-1;9.332598686E0
4.565189420E0;-2.226607651E-1;1.723825186E-1;9.356540680E0
4.570134420E0;-2.609679997E-1;1.556231081E-1;9.402029991E0
4.575078420E0;-2.849099934E-1;1.412578970E-1;9.428366661E0
4.580016189E0;-3.040636182E-1;1.053448766E-1;9.466673851E0
4.584961189E0;-3.615244627E-1;7.422025502E-2;9.471462250E0
4.589906189E0;-3.902548850E-1;1.436521020E-2;9.507374763E0
4.594851189E0;-3.998316824E-1;-2.154781483E-2;9.514557838E0
4.599796189E0;-4.309563041E-1;-4.070143029E-2;9.485827446E0
4.604740189E0;-4.477157295E-1;-5.027823523E-2;9.504981041E0
4.609685189E0;-4.596867263E-1;-4.070143029E-2;9.490615845E0
4.614630189E0;-4.525041282E-1;-3.351882473E-2;9.500192642E0
4.619575189E0;-4.333505034E-1;-2.154781483E-2;9.500192642E0
4.624520189E0;-4.189853072E-1;-2.394201700E-3;9.497797966E0
4.629465189E0;-3.998316824E-1;2.633621916E-2;9.504981041E0
4.634407882E0;-4.022258818E-1;1.675941236E-2;9.504981041E0
4.639349151E0;-3.782838583E-1;6.224924326E-2;9.533711433E0
4.644294151E0;-3.806780577E-1;8.379705995E-2;9.569623947E0
4.649239151E0;-3.734954596E-1;1.173158810E-1;9.622296333E0
4.654184151E0;-3.639186621E-1;1.125274822E-1;9.667786598E0
4.659129151E0;-3.615244627E-1;1.029506698E-1;9.698910713E0
4.664073151E0;-3.902548850E-1;1.029506698E-1;9.715670586E0
4.669018151E0;-4.046200812E-1;7.182604820E-2;9.742006302E0
4.673963151E0;-4.285621047E-1;4.309562966E-2;9.737217903E0
4.678893074E0;-4.453215301E-1;1.436521020E-2;9.727641106E0
4.683838074E0;-4.884171486E-1;-3.112462163E-2;9.670180321E0
4.688783074E0;-4.932055473E-1;-8.379705995E-2;9.617507935E0
4.693727074E0;-5.195417404E-1;-1.197100878E-1;9.536105156E0
4.698672074E0;-5.339069963E-1;-1.340752989E-1;9.469067574E0
4.703617074E0;-5.482721925E-1;-9.816227108E-2;9.397241592E0
4.708562074E0;-5.171475410E-1;-8.858546615E-2;9.344569206E0
4.713507074E0;-5.027823448E-1;-3.351882473E-2;9.313444138E0
4.718452074E0;-4.644751251E-1;1.915361360E-2;9.301473618E0
4.723388343E0;-3.998316824E-1;7.900865376E-2;9.325415611E0
4.728333343E0;-3.327940404E-1;1.316810995E-1;9.327810287E0
4.733278343E0;-2.729389966E-1;2.082955539E-1;9.392453194E0
4.738223343E0;-1.699883193E-1;2.418143749E-1;9.452308655E0
4.743168343E0;-1.197100878E-1;2.825157940E-1;9.495404243E0
4.748113343E0;-1.029506698E-1;3.136404157E-1;9.548076630E0
4.753044766E0;-1.053448766E-1;2.873041928E-1;9.581595421E0
4.757989766E0;-1.173158810E-1;2.753331959E-1;9.600749016E0
4.762934766E0;-1.388636976E-1;2.178723514E-1;9.624691010E0
4.767879766E0;-2.154781520E-1;1.939303428E-1;9.629479408E0
4.772824766E0;-2.633621991E-1;1.316810995E-1;9.631873131E0
4.777769766E0;-3.256114423E-1;8.140286058E-2;9.624691010E0
4.782714766E0;-4.237737060E-1;1.675941236E-2;9.607931137E0
4.787658766E0;-4.692635238E-1;-2.394201607E-2;9.591172218E0
4.792603766E0;-5.027823448E-1;-7.422025502E-2;9.560047150E0
4.797548766E0;-5.315127969E-1;-8.379705995E-2;9.548076630E0
4.802493766E0;-5.482721925E-1;-1.125274822E-1;9.533711433E0
4.807431189E0;-5.410895944E-1;-1.316810995E-1;9.531316757E0
4.812376189E0;-5.099649429E-1;-9.576806426E-2;9.490615845E0
4.817320189E0;-4.812345505E-1;-7.422025502E-2;9.481039047E0
4.822265189E0;-4.333505034E-1;-6.224924326E-2;9.495404243E0
4.827210189E0;-3.734954596E-1;-2.633621916E-2;9.507374763E0
4.832155189E0;-3.351882398E-1;2.394201607E-2;9.545681953E0
4.837100189E0;-2.944868207E-1;6.464344263E-2;9.588777542E0
4.842045189E0;-2.537853718E-1;9.576806426E-2;9.629479408E0
4.846989189E0;-2.370259613E-1;1.101332754E-1;9.686940193E0
4.851934189E0;-2.298433632E-1;1.149216816E-1;9.722852707E0
4.856879189E0;-2.274491638E-1;1.268926859E-1;9.749189377E0
4.861823266E0;-2.394201756E-1;1.221042871E-1;9.765948296E0
4.866768266E0;-2.537853718E-1;9.337386489E-2;9.797073364E0
4.871713266E0;-3.208230138E-1;5.506663769E-2;9.782708168E0
4.876657266E0;-3.471592367E-1;4.309562966E-2;9.801861763E0
4.881602266E0;-4.094084799E-1;7.182605099E-3;9.792284966E0
4.886537343E0;-4.525041282E-1;-1.675941236E-2;9.775525093E0
4.891482343E0;-4.860229492E-1;-2.873042040E-2;9.753977776E0
4.896427343E0;-5.195417404E-1;-2.394201607E-2;9.718064308E0
4.901372343E0;-5.291185975E-1;-5.985504389E-2;9.686940193E0
4.906316343E0;-5.434837937E-1;-6.464344263E-2;9.639056206E0
4.911261343E0;-5.291185975E-1;-8.619125932E-2;9.552865028E0
4.916202574E0;-4.716577232E-1;-6.703764945E-2;9.512163162E0
4.921147574E0;-4.309563041E-1;-4.309562966E-2;9.485827446E0
4.926092574E0;-3.878606856E-1;0.000000000E0;9.464279175E0
4.931037574E0;-3.447650373E-1;3.830722719E-2;9.449913979E0
4.935967112E0;-2.825157940E-1;6.464344263E-2;9.461885452E0
4.940912112E0;-2.585737705E-1;1.316810995E-1;9.469067574E0
4.945857112E0;-2.082955539E-1;1.556231081E-1;9.490615845E0
4.950802112E0;-1.651999205E-1;2.130839527E-1;9.557653427E0
4.955747112E0;-1.412578970E-1;2.561795712E-1;9.655815125E0
4.960692112E0;-1.292868853E-1;2.777273953E-1;9.734824181E0
4.965636112E0;-1.747767180E-1;2.777273953E-1;9.821015358E0
4.970581112E0;-1.891419291E-1;2.801215947E-1;9.876082420E0
4.975526112E0;-2.322375625E-1;2.466027737E-1;9.914389610E0
4.980471112E0;-2.561795712E-1;2.130839527E-1;9.923966408E0
4.985416112E0;-3.064578176E-1;1.460463107E-1;9.921571732E0
4.990361112E0;-3.184288144E-1;1.053448766E-1;9.892841339E0
4.995305112E0;-3.375824392E-1;6.224924326E-2;9.859322548E0
5.000250112E0;-3.806780577E-1;1.197100803E-2;9.816226959E0
5.005195112E0;-3.878606856E-1;4.788403399E-3;9.753977776E0
5.010140112E0;-3.854664862E-1;-2.154781483E-2;9.694122314E0
5.015085112E0;-4.141969085E-1;-7.182605099E-3;9.646238327E0
5.020029881E0;-4.118026793E-1;9.576806799E-3;9.598354340E0
5.024973881E0;-4.022258818E-1;2.154781483E-2;9.581595421E0
5.029915227E0;-3.950432837E-1;4.788403213E-2;9.583989143E0
5.034860227E0;-3.926490843E-1;7.422025502E-2;9.612719536E0
5.039805227E0;-3.663128614E-1;1.197100878E-1;9.651026726E0
5.044750227E0;-3.088520169E-1;1.484405100E-1;9.694122314E0
5.049676150E0;-3.016694188E-1;1.699883193E-1;9.770736694E0
5.054610535E0;-2.873041928E-1;1.747767180E-1;9.804255486E0
5.059555535E0;-2.920926213E-1;2.082955539E-1;9.866505623E0
5.064500535E0;-2.920926213E-1;2.154781520E-1;9.885659218E0
5.069445535E0;-2.753331959E-1;2.106897533E-1;9.890447617E0
5.074390535E0;-2.825157940E-1;1.963245422E-1;9.883264542E0
5.079335535E0;-2.944868207E-1;1.843535304E-1;9.866505623E0
5.084279535E0;-3.064578176E-1;1.771709323E-1;9.842563629E0
5.089224535E0;-3.351882398E-1;1.292868853E-1;9.821015358E0
5.094169535E0;-3.519476354E-1;1.173158810E-1;9.797073364E0
5.099114535E0;-3.687070608E-1;8.140286058E-2;9.797073364E0
5.104059535E0;-3.830722570E-1;6.703764945E-2;9.794678688E0
5.109004535E0;-3.998316824E-1;5.506663769E-2;9.804255486E0
5.113948535E0;-3.974374831E-1;3.112462163E-2;9.821015358E0
5.118893535E0;-4.022258818E-1;1.675941236E-2;9.823410034E0
5.123830920E0;-4.165911078E-1;9.576806799E-3;9.832986832E0
5.128775920E0;-4.261679053E-1;7.182605099E-3;9.821015358E0
5.133720920E0;-4.381389022E-1;0.000000000E0;9.813833237E0
5.138665920E0;-4.333505034E-1;2.633621916E-2;9.828198433E0
5.143609920E0;-4.213795066E-1;5.027823523E-2;9.825803757E0
5.148554920E0;-4.261679053E-1;6.943184882E-2;9.816226959E0
5.153499920E0;-4.070142806E-1;1.029506698E-1;9.806650162E0
5.158436150E0;-3.950432837E-1;1.221042871E-1;9.777919769E0
5.163381150E0;-3.902548850E-1;1.412578970E-1;9.775525093E0
5.168326150E0;-3.878606856E-1;1.843535304E-1;9.789890289E0
5.173270150E0;-3.639186621E-1;1.987187415E-1;9.780313492E0
5.178215150E0;-3.471592367E-1;1.891419291E-1;9.761159897E0
5.183160150E0;-3.303998411E-1;1.891419291E-1;9.753977776E0
5.188105150E0;-3.256114423E-1;2.035071403E-1;9.734824181E0
5.193050150E0;-3.040636182E-1;1.771709323E-1;9.753977776E0
5.197995150E0;-2.944868207E-1;1.651999205E-1;9.763554573E0
5.202939150E0;-2.920926213E-1;1.675941199E-1;9.794678688E0
5.207884150E0;-2.825157940E-1;1.651999205E-1;9.821015358E0
5.212832150E0;-2.944868207E-1;1.508347094E-1;9.840168953E0
5.217777150E0;-2.920926213E-1;1.556231081E-1;9.876082420E0
5.222721150E0;-2.825157940E-1;1.723825186E-1;9.914389610E0
5.227666150E0;-2.729389966E-1;1.747767180E-1;9.940725327E0
5.232611150E0;-2.585737705E-1;1.843535304E-1;9.955090523E0
5.237556150E0;-2.729389966E-1;1.843535304E-1;9.969455719E0
5.242501150E0;-2.705447972E-1;1.604115069E-1;9.998186111E0
5.247446150E0;-2.801215947E-1;1.532289088E-1;9.979032516E0
5.252390150E0;-3.040636182E-1;1.675941199E-1;9.964667320E0
5.257335150E0;-3.423708379E-1;1.436520964E-1;9.940725327E0
5.262275266E0;-4.022258818E-1;1.268926859E-1;9.933543205E0
5.267220266E0;-4.501099288E-1;1.077390760E-1;9.931148529E0
5.272165266E0;-4.979939461E-1;1.101332754E-1;9.938331604E0
5.277110266E0;-5.386953950E-1;1.197100878E-1;9.926360130E0
5.282054266E0;-5.386953950E-1;9.097966552E-2;9.880870819E0
5.286983689E0;-5.219359994E-1;3.351882473E-2;9.844957352E0
5.291928689E0;-5.315127969E-1;1.675941236E-2;9.789890289E0
5.296873689E0;-5.243301988E-1;4.070143029E-2;9.799467087E0
5.301818689E0;-4.979939461E-1;7.182604820E-2;9.818621635E0
5.306763689E0;-4.213795066E-1;1.316810995E-1;9.840168953E0
5.311707689E0;-3.782838583E-1;1.604115069E-1;9.885659218E0
5.316652689E0;-3.471592367E-1;1.867477298E-1;9.933543205E0
5.321597689E0;-3.040636182E-1;2.106897533E-1;9.974244118E0
5.326542689E0;-2.442085743E-1;2.226607651E-1;1.002931118E1
5.331487689E0;-2.298433632E-1;2.322375625E-1;1.005564690E1
5.336432689E0;-2.274491638E-1;2.442085743E-1;1.008677197E1
5.341376689E0;-2.657563984E-1;2.274491638E-1;1.010113716E1
5.346313766E0;-3.064578176E-1;1.843535304E-1;1.002691650E1
5.351258766E0;-3.375824392E-1;2.011129409E-1;1.000776291E1
5.356203766E0;-4.405331016E-1;1.556231081E-1;9.974244118E0
5.361148766E0;-4.692635238E-1;1.292868853E-1;9.940725327E0
5.366093766E0;-5.171475410E-1;1.221042871E-1;9.897629738E0
5.371037766E0;-5.219359994E-1;9.816227108E-2;9.878476143E0
5.375982766E0;-5.171475410E-1;9.816227108E-2;9.871294022E0
5.380927766E0;-4.836287498E-1;1.221042871E-1;9.849745750E0
5.385872766E0;-4.381389022E-1;1.532289088E-1;9.830592155E0
5.390817766E0;-3.830722570E-1;1.915361285E-1;9.809044838E0
5.395762766E0;-3.208230138E-1;2.418143749E-1;9.806650162E0
5.400706766E0;-2.681505978E-1;2.896983922E-1;9.794678688E0
5.405651766E0;-2.394201756E-1;3.112462163E-1;9.792284966E0
5.410596766E0;-2.178723514E-1;3.447650373E-1;9.818621635E0
5.415541766E0;-2.226607651E-1;3.830722570E-1;9.859322548E0
5.420486766E0;-2.250549644E-1;4.118026793E-1;9.888052940E0
5.425431766E0;-2.609679997E-1;3.854664862E-1;9.938331604E0
5.430375766E0;-2.729389966E-1;3.758896589E-1;9.962273598E0
5.435320766E0;-2.873041928E-1;3.495534360E-1;9.964667320E0
5.440265766E0;-3.088520169E-1;2.753331959E-1;9.969455719E0
5.445197958E0;-3.375824392E-1;2.657563984E-1;9.986215591E0
5.450142958E0;-4.022258818E-1;2.346317619E-1;9.983820915E0
5.455087958E0;-4.405331016E-1;1.915361285E-1;9.957485199E0
5.460031958E0;-4.668693244E-1;1.580173075E-1;9.952696800E0
5.464976958E0;-4.860229492E-1;1.316810995E-1;9.923966408E0
5.469921958E0;-4.955997467E-1;1.197100878E-1;9.909601212E0
5.474866958E0;-4.740519226E-1;1.077390760E-1;9.895236015E0
5.479811958E0;-4.189853072E-1;1.101332754E-1;9.900024414E0
5.484756958E0;-4.070142806E-1;1.388636976E-1;9.895236015E0
5.489700958E0;-3.687070608E-1;1.388636976E-1;9.919178009E0
5.494645958E0;-3.303998411E-1;1.604115069E-1;9.921571732E0
5.499590958E0;-3.256114423E-1;1.819593310E-1;9.935936928E0
5.504535958E0;-2.992752194E-1;1.987187415E-1;9.921571732E0
5.509480958E0;-2.585737705E-1;2.082955539E-1;9.928754807E0
5.514421919E0;-2.561795712E-1;2.322375625E-1;9.919178009E0
5.519365919E0;-2.753331959E-1;2.489969730E-1;9.926360130E0
5.524310919E0;-3.040636182E-1;2.657563984E-1;9.928754807E0
5.529255919E0;-3.351882398E-1;2.681505978E-1;9.919178009E0
5.534200919E0;-3.495534360E-1;2.585737705E-1;9.914389610E0
5.539145919E0;-3.543418646E-1;2.442085743E-1;9.892841339E0
5.544090919E0;-3.184288144E-1;2.418143749E-1;9.878476143E0
5.549034919E0;-3.136404157E-1;2.442085743E-1;9.888052940E0
5.553979919E0;-2.825157940E-1;2.130839527E-1;9.897629738E0
5.558924919E0;-2.968810201E-1;1.795651317E-1;9.921571732E0
5.563869919E0;-3.064578176E-1;1.651999205E-1;9.940725327E0
5.568814919E0;-3.160346150E-1;1.460463107E-1;9.957485199E0
5.573759919E0;-3.303998411E-1;1.197100878E-1;9.938331604E0
5.578703919E0;-3.303998411E-1;9.816227108E-2;9.935936928E0
5.583648919E0;-3.327940404E-1;9.576806426E-2;9.909601212E0
5.588593919E0;-3.663128614E-1;7.422025502E-2;9.876082420E0
5.593538919E0;-3.423708379E-1;6.703764945E-2;9.852140427E0
5.598483919E0;-3.447650373E-1;8.379705995E-2;9.830592155E0
5.603428919E0;-3.543418646E-1;1.077390760E-1;9.835380554E0
5.608373919E0;-3.495534360E-1;1.173158810E-1;9.844957352E0
5.613288342E0;-3.327940404E-1;1.292868853E-1;9.854534149E0
5.618233342E0;-3.471592367E-1;1.388636976E-1;9.890447617E0
5.623178342E0;-3.591302633E-1;1.628057212E-1;9.931148529E0
5.628123342E0;-3.495534360E-1;1.604115069E-1;9.945513725E0
5.633068342E0;-3.399766386E-1;1.651999205E-1;9.993397713E0
5.638013342E0;-3.591302633E-1;1.484405100E-1;1.004128170E1
5.642957342E0;-3.232172430E-1;1.436520964E-1;1.003649330E1
5.647902342E0;-3.399766386E-1;1.125274822E-1;1.007958889E1
5.652847342E0;-3.399766386E-1;9.816227108E-2;1.006043530E1
5.657788881E0;-3.447650373E-1;7.900865376E-2;1.002691650E1
5.662733881E0;-3.687070608E-1;5.267243832E-2;1.000297451E1
5.667678881E0;-3.878606856E-1;3.591302410E-2;9.969455719E0
5.672622881E0;-3.902548850E-1;3.830722719E-2;9.928754807E0
5.677567881E0;-4.046200812E-1;6.703764945E-2;9.904812813E0
5.682512881E0;-4.285621047E-1;5.506663769E-2;9.878476143E0
5.687457881E0;-3.950432837E-1;5.746084079E-2;9.859322548E0
5.692376573E0;-3.782838583E-1;8.140286058E-2;9.825803757E0
5.697321573E0;-3.615244627E-1;1.077390760E-1;9.832986832E0
5.702265573E0;-3.615244627E-1;1.364694983E-1;9.854534149E0
5.707210573E0;-3.399766386E-1;1.747767180E-1;9.864110947E0
5.712155573E0;-3.064578176E-1;1.891419291E-1;9.892841339E0
5.717100573E0;-2.753331959E-1;2.226607651E-1;9.909601212E0
5.722045573E0;-2.681505978E-1;2.537853718E-1;9.911994934E0
5.726990573E0;-2.513911724E-1;2.777273953E-1;9.892841339E0
5.731934573E0;-2.298433632E-1;2.825157940E-1;9.888052940E0
5.736879573E0;-2.178723514E-1;2.849099934E-1;9.868899345E0
5.741824573E0;-2.178723514E-1;2.753331959E-1;9.832986832E0
5.746748688E0;-2.202665508E-1;2.801215947E-1;9.828198433E0
5.751693688E0;-2.442085743E-1;2.513911724E-1;9.830592155E0
5.756638688E0;-2.585737705E-1;2.561795712E-1;9.837775230E0
5.761582688E0;-2.849099934E-1;2.418143749E-1;9.835380554E0
5.766527688E0;-3.088520169E-1;2.178723514E-1;9.866505623E0
5.771472688E0;-3.327940404E-1;1.915361285E-1;9.931148529E0
5.776417688E0;-3.232172430E-1;1.771709323E-1;9.947908401E0
5.781362688E0;-3.064578176E-1;1.556231081E-1;1.001733971E1
5.786307688E0;-3.232172430E-1;1.340752989E-1;1.004128170E1
5.791251688E0;-4.070142806E-1;1.173158810E-1;1.007719517E1
5.796196688E0;-4.596867263E-1;9.816227108E-2;1.008916569E1
5.801141688E0;-4.812345505E-1;1.029506698E-1;1.011789608E1
5.806086688E0;-4.453215301E-1;6.943184882E-2;1.013704967E1
5.811031688E0;-4.405331016E-1;5.985504389E-2;1.012268448E1
5.815976688E0;-4.165911078E-1;4.788403213E-2;1.009874249E1
5.820920688E0;-4.094084799E-1;5.267243832E-2;1.005804157E1
5.825865688E0;-4.189853072E-1;5.985504389E-2;1.001494598E1
5.830810688E0;-4.333505034E-1;8.619125932E-2;9.976638794E0
5.835755688E0;-4.381389022E-1;1.029506698E-1;9.959878922E0
5.840700688E0;-4.094084799E-1;1.460463107E-1;9.955090523E0
5.845639304E0;-3.543418646E-1;1.723825186E-1;9.928754807E0
5.850583304E0;-3.088520169E-1;1.843535304E-1;9.931148529E0
5.855528304E0;-2.681505978E-1;2.154781520E-1;9.947908401E0
5.860473304E0;-2.513911724E-1;1.987187415E-1;9.979032516E0
5.865418304E0;-2.489969730E-1;2.202665508E-1;9.979032516E0
5.870363304E0;-2.513911724E-1;2.130839527E-1;1.000297451E1
5.875308304E0;-2.896983922E-1;2.082955539E-1;1.001255131E1
5.880252304E0;-3.184288144E-1;1.675941199E-1;1.001015759E1
5.885197304E0;-3.375824392E-1;1.675941199E-1;1.002691650E1
5.890142304E0;-3.782838583E-1;1.364694983E-1;1.002212811E1
5.895087304E0;-3.926490843E-1;1.125274822E-1;1.001733971E1
5.900032304E0;-4.405331016E-1;1.125274822E-1;1.002931118E1
5.904977304E0;-4.668693244E-1;9.576806426E-2;1.002212811E1
5.909921304E0;-4.932055473E-1;7.661445439E-2;9.995792389E0
5.914866304E0;-5.075707436E-1;5.985504389E-2;9.981427193E0
5.919811304E0;-5.027823448E-1;6.943184882E-2;9.940725327E0
5.924756304E0;-5.027823448E-1;8.379705995E-2;9.914389610E0
5.929701304E0;-4.740519226E-1;1.101332754E-1;9.895236015E0
5.934646304E0;-4.381389022E-1;1.436520964E-1;9.873687744E0
5.939590304E0;-3.782838583E-1;1.747767180E-1;9.842563629E0
5.944535304E0;-3.208230138E-1;2.154781520E-1;9.832986832E0
5.949480304E0;-2.825157940E-1;2.513911724E-1;9.840168953E0
5.954425304E0;-2.753331959E-1;2.705447972E-1;9.832986832E0
5.959370304E0;-2.370259613E-1;2.849099934E-1;9.878476143E0
5.964315304E0;-2.082955539E-1;3.088520169E-1;9.876082420E0
5.969259304E0;-2.035071403E-1;3.088520169E-1;9.892841339E0
5.974204304E0;-1.939303428E-1;3.112462163E-1;9.914389610E0
5.979149304E0;-1.915361285E-1;2.896983922E-1;9.921571732E0
5.984094304E0;-1.867477298E-1;2.777273953E-1;9.923966408E0
5.989039304E0;-2.059013397E-1;2.370259613E-1;9.921571732E0
5.993981188E0;-2.346317619E-1;2.082955539E-1;9.931148529E0
5.998925188E0;-2.777273953E-1;1.843535304E-1;9.950302124E0
6.003870188E0;-3.136404157E-1;1.412578970E-1;9.988609314E0
6.008815188E0;-3.471592367E-1;1.005564705E-1;1.001015759E1
6.013748188E0;-3.734954596E-1;7.900865376E-2;1.001494598E1
6.018693188E0;-3.998316824E-1;7.422025502E-2;1.003170490E1
6.023638188E0;-4.237737060E-1;5.985504389E-2;1.003170490E1
6.028582188E0;-4.237737060E-1;6.224924326E-2;1.004367638E1
6.033527188E0;-4.237737060E-1;4.070143029E-2;1.000297451E1
6.038472188E0;-4.453215301E-1;4.070143029E-2;1.001494598E1
6.043417188E0;-4.165911078E-1;3.591302410E-2;1.001494598E1
6.048362188E0;-4.046200812E-1;5.506663769E-2;9.983820915E0
6.053307188E0;-3.854664862E-1;1.077390760E-1;9.967061996E0
6.058251188E0;-3.399766386E-1;1.077390760E-1;9.957485199E0
6.063196188E0;-3.136404157E-1;1.364694983E-1;9.945513725E0
6.068141188E0;-2.944868207E-1;1.747767180E-1;9.957485199E0
6.073068265E0;-2.561795712E-1;1.699883193E-1;9.945513725E0
6.078013265E0;-2.202665508E-1;2.130839527E-1;9.938331604E0
6.082958265E0;-1.819593310E-1;2.346317619E-1;9.926360130E0
6.087903265E0;-1.747767180E-1;2.394201756E-1;9.921571732E0
6.092847265E0;-1.604115069E-1;2.298433632E-1;9.952696800E0
6.097790111E0;-1.819593310E-1;2.322375625E-1;9.967061996E0
6.102735111E0;-2.513911724E-1;2.226607651E-1;9.959878922E0
6.107680111E0;-2.801215947E-1;1.963245422E-1;9.974244118E0
6.112625111E0;-3.256114423E-1;1.795651317E-1;9.969455719E0
6.117570111E0;-3.782838583E-1;1.723825186E-1;9.971850395E0
6.122514111E0;-3.878606856E-1;1.436520964E-1;9.974244118E0
6.127457573E0;-4.213795066E-1;1.149216816E-1;9.969455719E0
6.132402573E0;-4.285621047E-1;1.101332754E-1;9.952696800E0
6.137347573E0;-3.998316824E-1;8.379705995E-2;9.931148529E0
6.142288765E0;-3.734954596E-1;1.005564705E-1;9.888052940E0
6.147233765E0;-3.375824392E-1;1.173158810E-1;9.873687744E0
6.152177765E0;-3.064578176E-1;1.340752989E-1;9.876082420E0
6.157122765E0;-2.920926213E-1;1.580173075E-1;9.861717224E0
6.162067765E0;-2.537853718E-1;2.035071403E-1;9.854534149E0
6.167012765E0;-2.274491638E-1;2.178723514E-1;9.840168953E0
6.171957765E0;-2.250549644E-1;2.394201756E-1;9.856928825E0
6.176902765E0;-2.082955539E-1;2.322375625E-1;9.844957352E0
6.181819380E0;-2.322375625E-1;2.346317619E-1;9.849745750E0
6.186764380E0;-2.609679997E-1;2.059013397E-1;9.828198433E0
6.191709380E0;-2.944868207E-1;1.843535304E-1;9.806650162E0
6.196654380E0;-3.112462163E-1;1.580173075E-1;9.773131371E0
6.201599380E0;-3.687070608E-1;1.460463107E-1;9.777919769E0
6.206544380E0;-4.141969085E-1;1.053448766E-1;9.756371498E0
6.211491380E0;-4.548983276E-1;1.053448766E-1;9.751583099E0
6.216436380E0;-4.836287498E-1;9.337386489E-2;9.739612579E0
6.221381380E0;-4.955997467E-1;8.858546615E-2;9.710882187E0
6.226325380E0;-5.099649429E-1;9.576806426E-2;9.672574997E0
6.231270380E0;-5.003881454E-1;1.412578970E-1;9.627084732E0
6.236215380E0;-4.812345505E-1;1.604115069E-1;9.598354340E0
6.241160380E0;-4.453215301E-1;1.915361285E-1;9.552865028E0
6.245983380E0;-3.782838583E-1;2.442085743E-1;9.521739960E0
6.251035727E0;-3.184288144E-1;2.705447972E-1;9.493009567E0
6.255979727E0;-2.585737705E-1;3.136404157E-1;9.464279175E0
6.260924727E0;-2.059013397E-1;3.375824392E-1;9.437943459E0
6.265869727E0;-1.316810995E-1;3.639186621E-1;9.442731857E0
6.270814727E0;-8.858546615E-2;3.687070608E-1;9.485827446E0
6.275759727E0;-7.182604820E-2;3.806780577E-1;9.552865028E0
6.280704727E0;-5.027823523E-2;3.806780577E-1;9.670180321E0
6.285648727E0;-6.464344263E-2;3.615244627E-1;9.768342972E0
6.290593727E0;-1.029506698E-1;3.136404157E-1;9.897629738E0
6.295538727E0;-1.460463107E-1;2.585737705E-1;9.974244118E0
6.300483727E0;-2.250549644E-1;1.939303428E-1;1.005564690E1
6.305427726E0;-3.040636182E-1;1.268926859E-1;1.010831928E1
6.310371034E0;-3.830722570E-1;5.506663769E-2;1.018732834E1
6.315299765E0;-4.812345505E-1;-2.394201607E-2;1.019929886E1
6.320244765E0;-5.865794420E-1;-9.816227108E-2;1.021127033E1
6.325189765E0;-6.392518282E-1;-1.508347094E-1;1.022563553E1
6.330134765E0;-6.919242740E-1;-1.843535304E-1;1.020169353E1
6.335079765E0;-7.517793179E-1;-2.106897533E-1;1.016338634E1
6.340024765E0;-7.613561153E-1;-2.059013397E-1;1.010353088E1
6.344968765E0;-7.829039693E-1;-1.771709323E-1;1.004367638E1
6.349913765E0;-7.829039693E-1;-1.364694983E-1;9.991003990E0
6.354858765E0;-7.326257229E-1;-6.703764945E-2;9.890447617E0
6.359803765E0;-6.296750307E-1;3.591302410E-2;9.823410034E0
6.364748765E0;-5.315127969E-1;1.029506698E-1;9.785101891E0
6.369693765E0;-4.022258818E-1;2.059013397E-1;9.773131371E0
6.374637765E0;-2.968810201E-1;2.873041928E-1;9.780313492E0
6.379582765E0;-2.130839527E-1;3.327940404E-1;9.828198433E0
6.384527765E0;-1.532289088E-1;4.070142806E-1;9.880870819E0
6.389472765E0;-1.053448766E-1;4.357447028E-1;9.931148529E0
6.394417765E0;-9.337386489E-2;4.381389022E-1;9.981427193E0
6.399347996E0;-7.422025502E-2;4.261679053E-1;1.003409958E1
6.404292996E0;-9.576806426E-2;3.974374831E-1;1.007958889E1
6.409236996E0;-1.340752989E-1;3.423708379E-1;1.010113716E1
6.414181996E0;-1.771709323E-1;3.040636182E-1;1.014183807E1
6.419126996E0;-2.489969730E-1;2.681505978E-1;1.015620327E1
6.424071996E0;-3.088520169E-1;2.202665508E-1;1.017056847E1
6.429016996E0;-3.447650373E-1;1.915361285E-1;1.016338634E1
6.433961996E0;-3.687070608E-1;1.340752989E-1;1.012986755E1
6.438905996E0;-3.687070608E-1;1.053448766E-1;1.013465595E1
6.443850996E0;-3.711012602E-1;1.005564705E-1;1.010592556E1
6.448795996E0;-3.495534360E-1;9.816227108E-2;1.010831928E1
6.453740996E0;-3.399766386E-1;1.029506698E-1;1.008677197E1
6.458685996E0;-3.208230138E-1;1.197100878E-1;1.008198357E1
6.463630996E0;-3.112462163E-1;1.292868853E-1;1.007958889E1
6.468574996E0;-3.040636182E-1;1.532289088E-1;1.010113716E1
6.473519996E0;-3.160346150E-1;1.460463107E-1;1.010353088E1
6.478464996E0;-3.280056417E-1;1.628057212E-1;1.016338634E1
6.483409996E0;-3.399766386E-1;1.484405100E-1;1.019211674E1
6.488354996E0;-3.471592367E-1;1.412578970E-1;1.025197124E1
6.493299996E0;-3.711012602E-1;1.244984865E-1;1.027351952E1
6.498243996E0;-4.094084799E-1;1.101332754E-1;1.031182671E1
6.503188996E0;-4.309563041E-1;1.029506698E-1;1.031422138E1
6.508133996E0;-4.501099288E-1;9.337386489E-2;1.031900978E1
6.513078996E0;-4.357447028E-1;8.619125932E-2;1.030703831E1
6.518023996E0;-4.429273009E-1;6.943184882E-2;1.029746151E1
6.522968496E0;-4.070142806E-1;1.077390760E-1;1.024478912E1
6.527912496E0;-3.663128614E-1;1.053448766E-1;1.020408726E1
6.532855842E0;-3.351882398E-1;1.580173075E-1;1.010592556E1
6.537800842E0;-2.992752194E-1;1.819593310E-1;1.003170490E1
6.542745842E0;-2.705447972E-1;1.987187415E-1;9.964667320E0
6.547690842E0;-2.418143749E-1;2.466027737E-1;9.856928825E0
6.552635842E0;-2.035071403E-1;2.729389966E-1;9.797073364E0
6.557579842E0;-1.675941199E-1;2.968810201E-1;9.749189377E0
6.562524842E0;-1.771709323E-1;3.423708379E-1;9.701305389E0
6.567442380E0;-1.699883193E-1;3.639186621E-1;9.682151794E0
6.572387380E0;-1.412578970E-1;4.022258818E-1;9.679757118E0
6.577332380E0;-1.173158810E-1;4.405331016E-1;9.715670586E0
6.582277380E0;-1.053448766E-1;4.429273009E-1;9.765948296E0
6.587221380E0;-9.097966552E-2;4.572925270E-1;9.828198433E0
6.592166380E0;-1.053448766E-1;4.548983276E-1;9.907206535E0
6.597094611E0;-1.173158810E-1;4.405331016E-1;9.933543205E0
6.602039611E0;-1.364694983E-1;4.237737060E-1;9.950302124E0
6.606984611E0;-1.484405100E-1;3.926490843E-1;9.993397713E0
6.611929611E0;-1.723825186E-1;3.447650373E-1;9.983820915E0
6.616873611E0;-2.082955539E-1;2.873041928E-1;1.000058079E1
6.621813495E0;-2.274491638E-1;1.987187415E-1;9.964667320E0
6.626749034E0;-2.873041928E-1;1.580173075E-1;9.981427193E0
6.631694034E0;-3.208230138E-1;1.077390760E-1;9.962273598E0
6.636639034E0;-3.854664862E-1;6.464344263E-2;9.947908401E0
6.641571957E0;-4.357447028E-1;5.506663769E-2;9.955090523E0
6.646515957E0;-4.860229492E-1;2.394201607E-2;9.914389610E0
6.651460957E0;-5.195417404E-1;1.436521020E-2;9.928754807E0
6.656405957E0;-5.243301988E-1;4.548983276E-2;9.926360130E0
6.661350957E0;-4.955997467E-1;5.506663769E-2;9.923966408E0
6.666295957E0;-4.668693244E-1;7.182604820E-2;9.943120003E0
6.671240957E0;-4.381389022E-1;1.077390760E-1;9.957485199E0
6.676184957E0;-4.046200812E-1;1.221042871E-1;9.979032516E0
6.681129957E0;-3.926490843E-1;1.484405100E-1;9.967061996E0
6.686074957E0;-3.782838583E-1;1.795651317E-1;9.947908401E0
6.691019957E0;-3.591302633E-1;2.035071403E-1;9.923966408E0
6.695964957E0;-3.734954596E-1;2.082955539E-1;9.878476143E0
6.700909957E0;-3.734954596E-1;1.939303428E-1;9.797073364E0
6.705853957E0;-3.543418646E-1;2.202665508E-1;9.715670586E0
6.710794226E0;-3.495534360E-1;2.202665508E-1;9.646238327E0
6.715738649E0;-3.519476354E-1;2.202665508E-1;9.600749016E0
6.720683649E0;-3.256114423E-1;2.011129409E-1;9.548076630E0
6.725628649E0;-3.088520169E-1;2.322375625E-1;9.521739960E0
6.730573649E0;-3.208230138E-1;2.298433632E-1;9.514557838E0
6.735517649E0;-3.256114423E-1;2.202665508E-1;9.514557838E0
6.740462649E0;-3.232172430E-1;2.466027737E-1;9.540893555E0
6.745407649E0;-3.495534360E-1;2.298433632E-1;9.586383820E0
6.750345611E0;-3.327940404E-1;2.274491638E-1;9.634267807E0
6.755168611E0;-3.495534360E-1;2.322375625E-1;9.691728592E0
6.760235611E0;-3.663128614E-1;2.059013397E-1;9.768342972E0
6.765179611E0;-3.902548850E-1;1.963245422E-1;9.832986832E0
6.770124611E0;-3.806780577E-1;1.651999205E-1;9.914389610E0
6.775069611E0;-4.165911078E-1;1.508347094E-1;9.926360130E0
6.780014611E0;-4.429273009E-1;1.029506698E-1;9.938331604E0
6.784959611E0;-4.812345505E-1;7.422025502E-2;9.928754807E0
6.789904611E0;-5.003881454E-1;6.224924326E-2;9.900024414E0
6.794848611E0;-5.291185975E-1;4.309562966E-2;9.871294022E0
6.799793611E0;-5.458779931E-1;5.506663769E-2;9.821015358E0
6.804738611E0;-5.506663918E-1;7.182604820E-2;9.801861763E0
6.809683611E0;-5.147533417E-1;1.053448766E-1;9.773131371E0
6.814618495E0;-4.836287498E-1;1.268926859E-1;9.744400978E0
6.819563495E0;-4.381389022E-1;1.651999205E-1;9.746794701E0
6.824507495E0;-4.046200812E-1;2.322375625E-1;9.756371498E0
6.829452495E0;-3.447650373E-1;2.537853718E-1;9.746794701E0
6.834397495E0;-3.136404157E-1;2.705447972E-1;9.787496567E0
6.839342495E0;-2.801215947E-1;3.280056417E-1;9.825803757E0
6.844287495E0;-2.418143749E-1;3.447650373E-1;9.866505623E0
6.849232495E0;-2.346317619E-1;3.591302633E-1;9.907206535E0
6.854054495E0;-2.154781520E-1;3.447650373E-1;9.926360130E0
6.859121495E0;-2.537853718E-1;3.423708379E-1;9.940725327E0
6.864066495E0;-2.849099934E-1;3.447650373E-1;9.923966408E0
6.869011495E0;-3.160346150E-1;3.208230138E-1;9.931148529E0
6.873956495E0;-3.519476354E-1;3.088520169E-1;9.947908401E0
6.878901495E0;-3.830722570E-1;2.920926213E-1;9.880870819E0
6.883845495E0;-3.734954596E-1;2.274491638E-1;9.758766174E0
6.888790495E0;-3.734954596E-1;2.106897533E-1;9.674968719E0
6.893735495E0;-3.663128614E-1;1.987187415E-1;9.651026726E0
6.898680495E0;-3.639186621E-1;2.202665508E-1;9.600749016E0
6.903625495E0;-3.519476354E-1;1.963245422E-1;9.574412346E0
6.908570495E0;-3.854664862E-1;2.059013397E-1;9.562441826E0
6.913515495E0;-3.663128614E-1;2.250549644E-1;9.605537415E0
6.918459495E0;-3.543418646E-1;2.370259613E-1;9.694122314E0
6.923404495E0;-3.160346150E-1;2.657563984E-1;9.799467087E0
6.928349495E0;-2.753331959E-1;2.705447972E-1;9.902418137E0
6.933294495E0;-2.346317619E-1;2.753331959E-1;9.981427193E0
6.938239495E0;-2.394201756E-1;2.513911724E-1;1.006522369E1
6.943184495E0;-2.226607651E-1;2.394201756E-1;1.014183807E1
6.948128495E0;-2.298433632E-1;2.106897533E-1;1.019929886E1
6.953064341E0;-2.418143749E-1;1.771709323E-1;1.022324085E1
6.958009341E0;-2.705447972E-1;1.532289088E-1;1.021845245E1
6.962952303E0;-2.825157940E-1;1.149216816E-1;1.019929886E1
6.967887188E0;-3.280056417E-1;1.005564705E-1;1.013226128E1
6.972832188E0;-3.327940404E-1;8.858546615E-2;1.008198357E1
6.977776188E0;-3.423708379E-1;7.182604820E-2;1.001255131E1
6.982721188E0;-3.543418646E-1;9.576806426E-2;9.974244118E0
6.987653034E0;-3.447650373E-1;8.858546615E-2;9.897629738E0
6.992598034E0;-3.591302633E-1;1.221042871E-1;9.847352028E0
6.997543034E0;-3.854664862E-1;1.436520964E-1;9.806650162E0
7.002488034E0;-3.663128614E-1;1.747767180E-1;9.777919769E0
7.007432034E0;-3.375824392E-1;1.819593310E-1;9.761159897E0
7.012377034E0;-3.303998411E-1;1.963245422E-1;9.742006302E0
7.017322034E0;-2.873041928E-1;2.130839527E-1;9.763554573E0
7.022267034E0;-2.849099934E-1;2.250549644E-1;9.787496567E0
7.027212034E0;-2.657563984E-1;2.609679997E-1;9.861717224E0
7.032147649E0;-2.681505978E-1;2.681505978E-1;9.921571732E0
7.037091649E0;-2.585737705E-1;2.896983922E-1;9.974244118E0
7.042036649E0;-2.442085743E-1;2.609679997E-1;1.002212811E1
7.046981649E0;-2.466027737E-1;2.681505978E-1;1.007001209E1
7.051926649E0;-2.537853718E-1;2.489969730E-1;1.005325317E1
7.056871649E0;-2.633621991E-1;2.346317619E-1;1.007001209E1
7.061816649E0;-2.729389966E-1;2.274491638E-1;1.004367638E1
7.066751687E0;-2.777273953E-1;2.106897533E-1;1.002212811E1
7.071696687E0;-2.777273953E-1;2.394201756E-1;1.000776291E1
7.076641611E0;-2.849099934E-1;2.298433632E-1;9.959878922E0
7.081586611E0;-2.801215947E-1;2.370259613E-1;9.962273598E0
7.086531611E0;-2.944868207E-1;2.489969730E-1;9.921571732E0
7.091476611E0;-3.136404157E-1;2.561795712E-1;9.935936928E0
7.096420611E0;-3.208230138E-1;2.657563984E-1;9.923966408E0
7.101365611E0;-3.280056417E-1;2.657563984E-1;9.907206535E0
7.106310611E0;-3.639186621E-1;2.657563984E-1;9.923966408E0
7.111244034E0;-3.615244627E-1;2.561795712E-1;9.897629738E0
7.116189034E0;-3.447650373E-1;2.298433632E-1;9.914389610E0
7.121134034E0;-3.567360640E-1;2.082955539E-1;9.909601212E0
7.126078034E0;-3.375824392E-1;1.915361285E-1;9.921571732E0
7.131023034E0;-3.543418646E-1;1.891419291E-1;9.938331604E0
7.135968034E0;-3.663128614E-1;1.604115069E-1;9.950302124E0
7.140913034E0;-3.782838583E-1;1.675941199E-1;9.964667320E0
7.145858034E0;-3.998316824E-1;1.340752989E-1;9.998186111E0
7.150784187E0;-4.070142806E-1;1.149216816E-1;1.002452278E1
7.155728187E0;-4.405331016E-1;1.053448766E-1;1.008677197E1
7.160673187E0;-4.405331016E-1;9.097966552E-2;1.012029076E1
7.165618187E0;-4.501099288E-1;9.097966552E-2;1.015380955E1
7.170563187E0;-4.165911078E-1;9.097966552E-2;1.018732834E1
7.175508187E0;-4.189853072E-1;1.101332754E-1;1.020408726E1
7.180453187E0;-3.950432837E-1;1.316810995E-1;1.019929886E1
7.185397187E0;-3.782838583E-1;1.340752989E-1;1.016817474E1
7.190342187E0;-3.423708379E-1;1.843535304E-1;1.011550236E1
7.195287187E0;-3.160346150E-1;2.298433632E-1;1.005804157E1
7.200232187E0;-2.753331959E-1;2.513911724E-1;9.950302124E0
7.205177187E0;-2.633621991E-1;3.064578176E-1;9.873687744E0
7.210002187E0;-2.418143749E-1;3.160346150E-1;9.806650162E0
7.215057880E0;-2.633621991E-1;3.447650373E-1;9.761159897E0
7.220002880E0;-2.561795712E-1;3.567360640E-1;9.722852707E0
7.224947880E0;-2.681505978E-1;3.567360640E-1;9.708487511E0
7.229892880E0;-2.705447972E-1;3.375824392E-1;9.698910713E0
7.234831687E0;-2.657563984E-1;3.136404157E-1;9.715670586E0
7.239776687E0;-2.681505978E-1;3.064578176E-1;9.732429504E0
7.244721687E0;-3.016694188E-1;2.777273953E-1;9.785101891E0
7.249666687E0;-3.160346150E-1;2.585737705E-1;9.821015358E0
7.254611687E0;-3.399766386E-1;2.130839527E-1;9.861717224E0
7.259556687E0;-3.519476354E-1;1.843535304E-1;9.902418137E0
7.264500687E0;-3.854664862E-1;1.412578970E-1;9.931148529E0
7.269445687E0;-4.118026793E-1;1.244984865E-1;9.967061996E0
7.274390687E0;-4.309563041E-1;1.173158810E-1;1.001494598E1
7.279335687E0;-4.429273009E-1;9.576806426E-2;1.001733971E1
7.284280687E0;-4.453215301E-1;8.858546615E-2;1.002931118E1
7.289225687E0;-4.596867263E-1;7.661445439E-2;1.000058079E1
7.294169687E0;-4.548983276E-1;8.140286058E-2;9.988609314E0
7.299114687E0;-4.453215301E-1;1.029506698E-1;9.952696800E0
7.304059687E0;-4.213795066E-1;1.221042871E-1;9.921571732E0
7.309004687E0;-3.902548850E-1;1.292868853E-1;9.911994934E0
7.313949687E0;-3.591302633E-1;1.388636976E-1;9.890447617E0
7.318869610E0;-3.471592367E-1;1.699883193E-1;9.890447617E0
7.323813610E0;-3.256114423E-1;1.939303428E-1;9.876082420E0
7.328758610E0;-3.112462163E-1;2.106897533E-1;9.866505623E0
7.333703610E0;-3.184288144E-1;2.250549644E-1;9.844957352E0
7.338648610E0;-3.256114423E-1;2.202665508E-1;9.844957352E0
7.343593610E0;-3.208230138E-1;2.130839527E-1;9.873687744E0
7.348538610E0;-3.184288144E-1;2.202665508E-1;9.888052940E0
7.353482610E0;-3.232172430E-1;2.106897533E-1;9.876082420E0
7.358427610E0;-3.136404157E-1;2.250549644E-1;9.909601212E0
7.363372610E0;-3.040636182E-1;2.154781520E-1;9.950302124E0
7.368317610E0;-2.849099934E-1;2.178723514E-1;9.940725327E0
7.373262610E0;-3.016694188E-1;2.178723514E-1;9.950302124E0
7.378206264E0;-3.112462163E-1;2.154781520E-1;9.950302124E0
7.383150264E0;-3.136404157E-1;2.250549644E-1;9.923966408E0
7.388095264E0;-3.399766386E-1;2.226607651E-1;9.923966408E0
7.393040264E0;-3.447650373E-1;2.202665508E-1;9.911994934E0
7.397974149E0;-3.639186621E-1;2.274491638E-1;9.902418137E0
7.402919149E0;-3.543418646E-1;2.442085743E-1;9.895236015E0
7.407864149E0;-3.663128614E-1;2.346317619E-1;9.900024414E0
7.412808149E0;-3.639186621E-1;2.513911724E-1;9.914389610E0
7.417753149E0;-3.495534360E-1;2.705447972E-1;9.919178009E0
7.422698033E0;-3.232172430E-1;2.777273953E-1;9.947908401E0
7.427643033E0;-3.351882398E-1;2.849099934E-1;9.981427193E0
7.432588033E0;-3.327940404E-1;2.920926213E-1;9.986215591E0
7.437533033E0;-3.232172430E-1;2.777273953E-1;1.002691650E1
7.442477033E0;-3.232172430E-1;2.753331959E-1;1.003170490E1
7.447422033E0;-3.399766386E-1;2.609679997E-1;1.004607010E1
7.452367033E0;-3.519476354E-1;2.298433632E-1;1.004128170E1
7.457190033E0;-3.734954596E-1;2.178723514E-1;1.006761837E1
7.462257033E0;-4.070142806E-1;2.106897533E-1;1.006522369E1
7.467202033E0;-4.070142806E-1;1.819593310E-1;1.003170490E1
7.472146033E0;-4.381389022E-1;1.508347094E-1;1.001733971E1
7.477091033E0;-4.525041282E-1;1.436520964E-1;9.983820915E0
7.482036033E0;-4.692635238E-1;1.484405100E-1;9.923966408E0
7.486981033E0;-5.051765442E-1;1.388636976E-1;9.878476143E0
7.491926033E0;-5.147533417E-1;1.364694983E-1;9.818621635E0
7.496871033E0;-4.836287498E-1;1.316810995E-1;9.765948296E0
7.501815033E0;-4.333505034E-1;1.268926859E-1;9.744400978E0
7.506760033E0;-4.070142806E-1;1.412578970E-1;9.732429504E0
7.511705033E0;-3.806780577E-1;2.035071403E-1;9.765948296E0
7.516650033E0;-3.184288144E-1;2.394201756E-1;9.804255486E0
7.521595033E0;-3.040636182E-1;2.609679997E-1;9.873687744E0
7.526540033E0;-2.489969730E-1;2.801215947E-1;9.923966408E0
7.531484033E0;-2.011129409E-1;3.112462163E-1;9.991003990E0
7.536429033E0;-1.987187415E-1;3.112462163E-1;1.007001209E1
7.541374033E0;-1.891419291E-1;2.968810201E-1;1.010113716E1
7.546319033E0;-2.226607651E-1;2.681505978E-1;1.014183807E1
7.551264033E0;-2.825157940E-1;2.537853718E-1;1.012747288E1
7.556209033E0;-3.280056417E-1;1.963245422E-1;1.011550236E1
7.561153033E0;-3.711012602E-1;1.963245422E-1;1.006761837E1
7.566098033E0;-3.974374831E-1;1.340752989E-1;1.000297451E1
7.571043033E0;-4.405331016E-1;1.101332754E-1;9.950302124E0
7.575983610E0;-4.453215301E-1;1.173158810E-1;9.890447617E0
7.580920610E0;-4.309563041E-1;1.005564705E-1;9.828198433E0
7.585865610E0;-4.333505034E-1;1.316810995E-1;9.768342972E0
7.590809610E0;-3.950432837E-1;1.556231081E-1;9.756371498E0
7.595754610E0;-3.758896589E-1;1.771709323E-1;9.715670586E0
7.600699610E0;-3.208230138E-1;1.939303428E-1;9.720458984E0
7.605644610E0;-2.705447972E-1;2.082955539E-1;9.720458984E0
7.610589610E0;-1.987187415E-1;2.130839527E-1;9.758766174E0
7.615534610E0;-1.532289088E-1;2.346317619E-1;9.797073364E0
7.620478610E0;-1.149216816E-1;2.418143749E-1;9.856928825E0
7.625423610E0;-1.149216816E-1;2.633621991E-1;9.950302124E0
7.630368610E0;-1.364694983E-1;2.489969730E-1;1.002931118E1
7.635303726E0;-1.604115069E-1;2.466027737E-1;1.008916569E1
7.640248726E0;-1.891419291E-1;2.106897533E-1;1.012986755E1
7.645182956E0;-2.370259613E-1;1.939303428E-1;1.014662647E1
7.650126956E0;-2.944868207E-1;1.628057212E-1;1.013465595E1
7.655071956E0;-3.351882398E-1;1.508347094E-1;1.012747288E1
7.660011149E0;-3.950432837E-1;1.197100878E-1;1.010831928E1
7.664834149E0;-4.357447028E-1;9.816227108E-2;1.005325317E1
7.669893726E0;-4.525041282E-1;9.816227108E-2;1.002691650E1
7.674838726E0;-4.357447028E-1;1.029506698E-1;9.993397713E0
7.679782726E0;-4.285621047E-1;1.221042871E-1;9.945513725E0
7.684727726E0;-4.046200812E-1;1.484405100E-1;9.926360130E0
7.689672726E0;-3.758896589E-1;2.059013397E-1;9.916783333E0
7.694617726E0;-3.351882398E-1;2.154781520E-1;9.885659218E0
7.699562726E0;-2.968810201E-1;2.537853718E-1;9.856928825E0
7.704507726E0;-2.226607651E-1;2.633621991E-1;9.852140427E0
7.709452726E0;-1.867477298E-1;2.657563984E-1;9.859322548E0
7.714396726E0;-1.604115069E-1;2.944868207E-1;9.861717224E0
7.719337687E0;-1.340752989E-1;3.160346150E-1;9.888052940E0
7.724282687E0;-1.364694983E-1;3.040636182E-1;9.933543205E0
7.729227687E0;-1.388636976E-1;3.208230138E-1;9.962273598E0
7.734172687E0;-2.059013397E-1;2.968810201E-1;9.969455719E0
7.739117687E0;-2.178723514E-1;2.681505978E-1;9.979032516E0
7.744061687E0;-2.633621991E-1;2.274491638E-1;9.976638794E0
7.749006687E0;-2.920926213E-1;2.035071403E-1;9.969455719E0
7.753939918E0;-3.615244627E-1;1.963245422E-1;9.974244118E0
7.758884918E0;-3.902548850E-1;1.628057212E-1;9.967061996E0
7.763829918E0;-4.141969085E-1;1.388636976E-1;9.943120003E0
7.768774918E0;-4.453215301E-1;1.268926859E-1;9.926360130E0
7.773718918E0;-4.285621047E-1;1.244984865E-1;9.911994934E0
7.778663918E0;-4.022258818E-1;1.436520964E-1;9.909601212E0
7.783608918E0;-3.806780577E-1;1.556231081E-1;9.914389610E0
7.788553918E0;-3.447650373E-1;1.819593310E-1;9.911994934E0
7.793498918E0;-3.303998411E-1;1.939303428E-1;9.919178009E0
7.798443918E0;-3.232172430E-1;2.059013397E-1;9.952696800E0
7.803387918E0;-2.992752194E-1;2.298433632E-1;9.940725327E0
7.808332918E0;-2.705447972E-1;2.609679997E-1;9.943120003E0
7.813277918E0;-2.561795712E-1;2.394201756E-1;9.921571732E0
7.818222918E0;-2.322375625E-1;2.585737705E-1;9.916783333E0
7.823167918E0;-2.059013397E-1;2.657563984E-1;9.873687744E0
7.828112918E0;-1.675941199E-1;2.849099934E-1;9.832986832E0
7.833056918E0;-1.651999205E-1;2.944868207E-1;9.804255486E0
7.837999610E0;-1.987187415E-1;2.896983922E-1;9.765948296E0
7.842944610E0;-2.298433632E-1;3.112462163E-1;9.761159897E0
7.847889610E0;-2.489969730E-1;3.136404157E-1;9.749189377E0
7.852834610E0;-2.681505978E-1;3.184288144E-1;9.756371498E0
7.857779610E0;-3.016694188E-1;2.873041928E-1;9.753977776E0
7.862723610E0;-3.184288144E-1;2.896983922E-1;9.785101891E0
7.867657841E0;-3.303998411E-1;2.394201756E-1;9.761159897E0
7.872599956E0;-3.519476354E-1;2.106897533E-1;9.775525093E0
7.877544956E0;-3.902548850E-1;1.819593310E-1;9.775525093E0
7.882489956E0;-4.213795066E-1;1.508347094E-1;9.792284966E0
7.887417918E0;-4.357447028E-1;1.628057212E-1;9.794678688E0
7.892361918E0;-4.548983276E-1;1.460463107E-1;9.828198433E0
7.897306918E0;-4.668693244E-1;1.364694983E-1;9.861717224E0
7.902251918E0;-4.548983276E-1;1.029506698E-1;9.911994934E0
7.907196918E0;-4.381389022E-1;1.053448766E-1;9.959878922E0
7.912135110E0;-3.615244627E-1;1.077390760E-1;1.002931118E1
7.917080110E0;-3.495534360E-1;1.005564705E-1;1.007958889E1
7.922024110E0;-3.184288144E-1;9.816227108E-2;1.014902115E1
7.926969110E0;-2.944868207E-1;1.292868853E-1;1.022324085E1
7.931914110E0;-2.681505978E-1;1.340752989E-1;1.026394272E1
7.936859110E0;-2.849099934E-1;1.915361285E-1;1.030943298E1
7.941804110E0;-2.801215947E-1;2.035071403E-1;1.028788471E1
7.946749110E0;-2.944868207E-1;2.298433632E-1;1.026154804E1
7.951693110E0;-2.944868207E-1;2.059013397E-1;1.022324085E1
7.956638110E0;-3.064578176E-1;1.987187415E-1;1.012747288E1
7.961583110E0;-3.375824392E-1;2.059013397E-1;1.005085850E1
7.966528110E0;-3.399766386E-1;1.771709323E-1;9.959878922E0
7.971473110E0;-3.663128614E-1;1.891419291E-1;9.876082420E0
7.976418110E0;-3.830722570E-1;1.795651317E-1;9.789890289E0
7.981362110E0;-3.782838583E-1;1.843535304E-1;9.725247383E0
7.986307110E0;-3.543418646E-1;2.059013397E-1;9.686940193E0
7.991252110E0;-3.423708379E-1;2.011129409E-1;9.643844604E0
7.996197110E0;-3.136404157E-1;2.178723514E-1;9.646238327E0
8.001142110E0;-2.705447972E-1;2.394201756E-1;9.665391922E0
8.006087110E0;-2.202665508E-1;2.705447972E-1;9.694122314E0
8.011031110E0;-1.963245422E-1;3.016694188E-1;9.768342972E0
8.015964225E0;-1.699883193E-1;3.016694188E-1;9.840168953E0
8.020909225E0;-1.388636976E-1;3.112462163E-1;9.916783333E0
8.025854225E0;-1.125274822E-1;3.303998411E-1;9.974244118E0
8.030799225E0;-1.221042871E-1;3.256114423E-1;1.002691650E1
8.035744225E0;-1.436520964E-1;3.256114423E-1;1.005325317E1
8.040688225E0;-1.747767180E-1;3.184288144E-1;1.006043530E1
8.045633225E0;-2.106897533E-1;2.920926213E-1;1.007480049E1
8.050578225E0;-2.513911724E-1;2.681505978E-1;1.005564690E1
8.055513341E0;-2.944868207E-1;2.466027737E-1;1.000776291E1
8.060458341E0;-2.968810201E-1;2.106897533E-1;9.998186111E0
8.065403341E0;-3.519476354E-1;1.891419291E-1;9.979032516E0
8.070344725E0;-3.663128614E-1;1.747767180E-1;9.971850395E0
8.075287648E0;-3.734954596E-1;1.532289088E-1;9.940725327E0
8.080232648E0;-3.663128614E-1;1.651999205E-1;9.940725327E0
8.085177648E0;-3.687070608E-1;1.532289088E-1;9.947908401E0
8.090122648E0;-3.782838583E-1;1.843535304E-1;9.976638794E0
8.095067648E0;-3.782838583E-1;1.891419291E-1;9.981427193E0
8.100011648E0;-3.519476354E-1;1.843535304E-1;1.002212811E1
8.104956648E0;-3.184288144E-1;1.987187415E-1;1.004128170E1
8.109901648E0;-3.040636182E-1;2.082955539E-1;1.006043530E1
8.114836648E0;-2.968810201E-1;2.178723514E-1;1.005564690E1
8.119781648E0;-2.873041928E-1;2.346317619E-1;1.005085850E1
8.124726648E0;-2.896983922E-1;2.442085743E-1;1.003409958E1
8.129548648E0;-2.394201756E-1;3.064578176E-1;9.938331604E0
8.134493648E0;-2.394201756E-1;3.112462163E-1;9.940725327E0
8.139438648E0;-2.394201756E-1;3.112462163E-1;9.940725327E0
8.144505648E0;-2.035071403E-1;3.303998411E-1;9.928754807E0
8.149450648E0;-1.795651317E-1;3.567360640E-1;9.907206535E0
8.154395648E0;-1.723825186E-1;3.687070608E-1;9.876082420E0
8.159339648E0;-1.747767180E-1;3.519476354E-1;9.852140427E0
8.164284648E0;-2.250549644E-1;3.495534360E-1;9.809044838E0
8.169222571E0;-2.513911724E-1;3.256114423E-1;9.789890289E0
8.174167571E0;-2.705447972E-1;2.992752194E-1;9.785101891E0
8.179112571E0;-2.944868207E-1;2.825157940E-1;9.768342972E0
8.184039725E0;-3.256114423E-1;2.681505978E-1;9.765948296E0
8.188983725E0;-3.423708379E-1;2.322375625E-1;9.777919769E0
8.193928725E0;-3.519476354E-1;2.250549644E-1;9.792284966E0
8.198873725E0;-3.519476354E-1;2.011129409E-1;9.816226959E0
8.203818725E0;-3.471592367E-1;1.723825186E-1;9.821015358E0
8.208760725E0;-3.495534360E-1;1.580173075E-1;9.852140427E0
8.213703379E0;-3.447650373E-1;1.580173075E-1;9.861717224E0
8.218641456E0;-3.375824392E-1;1.364694983E-1;9.856928825E0
8.223586456E0;-3.160346150E-1;1.364694983E-1;9.864110947E0
8.228531456E0;-2.873041928E-1;1.292868853E-1;9.864110947E0
8.233472687E0;-2.801215947E-1;1.268926859E-1;9.888052940E0
8.238416687E0;-2.681505978E-1;1.197100878E-1;9.895236015E0
8.243361687E0;-2.466027737E-1;1.292868853E-1;9.888052940E0
8.248306687E0;-2.633621991E-1;1.364694983E-1;9.926360130E0
8.253251687E0;-2.825157940E-1;1.532289088E-1;9.940725327E0
8.258196687E0;-3.088520169E-1;1.580173075E-1;9.962273598E0
8.263141687E0;-3.208230138E-1;1.843535304E-1;9.988609314E0
8.268085687E0;-3.208230138E-1;1.867477298E-1;1.000058079E1
8.273030687E0;-3.375824392E-1;1.843535304E-1;1.000776291E1
8.277975687E0;-3.184288144E-1;1.891419291E-1;1.001255131E1
8.282920687E0;-3.327940404E-1;1.963245422E-1;1.001973438E1
8.287865687E0;-3.303998411E-1;2.178723514E-1;9.969455719E0
8.292810687E0;-3.399766386E-1;1.939303428E-1;9.928754807E0
8.297754687E0;-3.423708379E-1;1.771709323E-1;9.873687744E0
8.302699687E0;-3.471592367E-1;1.939303428E-1;9.806650162E0
8.307644687E0;-3.734954596E-1;1.723825186E-1;9.734824181E0
8.312588687E0;-3.687070608E-1;1.484405100E-1;9.648633003E0
8.317526956E0;-3.734954596E-1;1.508347094E-1;9.591172218E0
8.322471956E0;-3.567360640E-1;1.628057212E-1;9.560047150E0
8.327415956E0;-3.447650373E-1;1.747767180E-1;9.545681953E0
8.332360956E0;-3.423708379E-1;1.987187415E-1;9.548076630E0
8.337305956E0;-3.375824392E-1;2.418143749E-1;9.562441826E0
8.342250956E0;-3.136404157E-1;2.753331959E-1;9.607931137E0
8.347195956E0;-2.801215947E-1;2.873041928E-1;9.682151794E0
8.352140956E0;-2.442085743E-1;3.375824392E-1;9.739612579E0
8.357084956E0;-2.178723514E-1;3.471592367E-1;9.837775230E0
8.362029956E0;-1.843535304E-1;3.567360640E-1;9.928754807E0
8.366974956E0;-1.891419291E-1;3.687070608E-1;1.001973438E1
8.371907533E0;-1.843535304E-1;3.495534360E-1;1.009395409E1
8.376852533E0;-1.795651317E-1;3.064578176E-1;1.011550236E1
8.381797533E0;-2.178723514E-1;2.729389966E-1;1.012747288E1
8.386741533E0;-2.322375625E-1;2.178723514E-1;1.011310768E1
8.391686533E0;-2.657563984E-1;1.580173075E-1;1.005564690E1
8.396631533E0;-3.615244627E-1;1.244984865E-1;1.004846478E1
8.401576533E0;-4.141969085E-1;6.464344263E-2;9.998186111E0
8.406521533E0;-4.788403511E-1;1.675941236E-2;9.976638794E0
8.411466533E0;-5.123591423E-1;-1.675941236E-2;9.933543205E0
8.416410533E0;-5.698199868E-1;-4.070143029E-2;9.940725327E0
8.421355533E0;-5.722141862E-1;-3.830722719E-2;9.945513725E0
8.426300533E0;-5.482721925E-1;-3.112462163E-2;9.947908401E0
8.431245533E0;-5.434837937E-1;7.182605099E-3;9.964667320E0
8.436190533E0;-5.027823448E-1;6.464344263E-2;9.995792389E0
8.441135533E0;-4.548983276E-1;1.125274822E-1;1.006282997E1
8.446079533E0;-3.950432837E-1;1.747767180E-1;1.011071396E1
8.451024533E0;-3.375824392E-1;2.298433632E-1;1.015141487E1
8.455969148E0;-2.609679997E-1;2.992752194E-1;1.018253994E1
8.460914148E0;-1.723825186E-1;3.591302633E-1;1.018493366E1
8.465859148E0;-1.292868853E-1;3.687070608E-1;1.014662647E1
8.470781302E0;-1.077390760E-1;3.806780577E-1;1.011550236E1
8.475603302E0;-8.858546615E-2;3.878606856E-1;1.005804157E1
8.480670302E0;-8.858546615E-2;3.854664862E-1;9.976638794E0
8.485615302E0;-8.858546615E-2;3.687070608E-1;9.962273598E0
8.490560302E0;-1.077390760E-1;3.758896589E-1;9.931148529E0
8.495505302E0;-1.364694983E-1;3.615244627E-1;9.931148529E0
8.500450302E0;-1.699883193E-1;3.447650373E-1;9.935936928E0
8.505394302E0;-1.915361285E-1;3.327940404E-1;9.971850395E0
8.510339302E0;-2.011129409E-1;3.136404157E-1;1.004367638E1
8.515284302E0;-2.298433632E-1;2.968810201E-1;1.009395409E1
8.520229302E0;-2.418143749E-1;2.873041928E-1;1.013944435E1
8.525174302E0;-2.681505978E-1;2.489969730E-1;1.018014526E1
8.530119302E0;-2.681505978E-1;2.442085743E-1;1.019451046E1
8.535064302E0;-2.801215947E-1;2.035071403E-1;1.018732834E1
8.540008302E0;-2.944868207E-1;1.723825186E-1;1.019690514E1
8.544953302E0;-3.399766386E-1;1.556231081E-1;1.014902115E1
8.549888802E0;-3.782838583E-1;1.412578970E-1;1.010831928E1
8.554833802E0;-4.118026793E-1;1.340752989E-1;1.005804157E1
8.559778802E0;-4.189853072E-1;1.532289088E-1;1.001973438E1
8.564723802E0;-4.357447028E-1;1.675941199E-1;9.964667320E0
8.569661763E0;-4.213795066E-1;1.891419291E-1;9.943120003E0
8.574606763E0;-4.333505034E-1;2.274491638E-1;9.895236015E0
8.579551763E0;-4.453215301E-1;2.585737705E-1;9.907206535E0
8.584496763E0;-4.261679053E-1;2.633621991E-1;9.880870819E0
8.589319763E0;-3.950432837E-1;3.160346150E-1;9.883264542E0
8.594386763E0;-3.663128614E-1;3.280056417E-1;9.871294022E0
8.599330763E0;-3.160346150E-1;3.519476354E-1;9.859322548E0
8.604275763E0;-2.729389966E-1;3.854664862E-1;9.840168953E0
8.609220763E0;-2.322375625E-1;4.046200812E-1;9.797073364E0
8.614165763E0;-2.059013397E-1;3.830722570E-1;9.799467087E0
8.619110763E0;-1.891419291E-1;3.950432837E-1;9.765948296E0
8.624055763E0;-1.891419291E-1;3.567360640E-1;9.753977776E0
8.628999763E0;-2.011129409E-1;3.184288144E-1;9.734824181E0
8.633944763E0;-1.939303428E-1;2.920926213E-1;9.720458984E0
8.638889763E0;-1.891419291E-1;2.489969730E-1;9.751583099E0
8.643834763E0;-2.035071403E-1;2.130839527E-1;9.770736694E0
8.648779763E0;-2.346317619E-1;1.795651317E-1;9.830592155E0
8.653724763E0;-2.729389966E-1;1.436520964E-1;9.878476143E0
8.658668763E0;-3.064578176E-1;1.292868853E-1;9.957485199E0
8.663613763E0;-3.471592367E-1;1.197100878E-1;1.001015759E1
8.668547109E0;-4.022258818E-1;1.340752989E-1;1.008198357E1
8.673492109E0;-4.333505034E-1;1.029506698E-1;1.016338634E1
8.678434648E0;-4.477157295E-1;7.661445439E-2;1.020169353E1
8.683379648E0;-4.501099288E-1;6.464344263E-2;1.021366405E1
8.688323648E0;-4.620809257E-1;4.070143029E-2;1.023760605E1
8.693268648E0;-4.501099288E-1;4.309562966E-2;1.023760605E1
8.698213648E0;-4.453215301E-1;2.633621916E-2;1.021845245E1
8.703158648E0;-4.572925270E-1;2.873042040E-2;1.017775154E1
8.708103648E0;-4.381389022E-1;7.422025502E-2;1.012986755E1
8.713032956E0;-4.525041282E-1;1.077390760E-1;1.006761837E1
8.717973379E0;-4.309563041E-1;1.316810995E-1;9.974244118E0
8.722918379E0;-4.548983276E-1;1.628057212E-1;9.895236015E0
8.727863379E0;-4.453215301E-1;1.795651317E-1;9.821015358E0
8.732808379E0;-4.525041282E-1;1.819593310E-1;9.749189377E0
8.737753379E0;-4.118026793E-1;2.250549644E-1;9.679757118E0
8.742698379E0;-3.878606856E-1;2.681505978E-1;9.622296333E0
8.747642379E0;-3.303998411E-1;3.016694188E-1;9.583989143E0
8.752587379E0;-3.016694188E-1;3.471592367E-1;9.583989143E0
8.757532379E0;-2.585737705E-1;3.734954596E-1;9.567230225E0
8.762477379E0;-2.298433632E-1;4.070142806E-1;9.607931137E0
8.767422379E0;-1.675941199E-1;4.381389022E-1;9.639056206E0
8.772367379E0;-1.316810995E-1;4.525041282E-1;9.691728592E0
8.777311379E0;-1.101332754E-1;4.285621047E-1;9.775525093E0
8.782256379E0;-1.149216816E-1;3.830722570E-1;9.821015358E0
8.787201379E0;-1.268926859E-1;3.375824392E-1;9.859322548E0
8.792146379E0;-1.532289088E-1;2.777273953E-1;9.892841339E0
8.797091379E0;-1.843535304E-1;2.250549644E-1;9.895236015E0
8.802036379E0;-2.466027737E-1;1.747767180E-1;9.919178009E0
8.806980379E0;-3.303998411E-1;1.580173075E-1;9.950302124E0
8.811925379E0;-3.615244627E-1;1.388636976E-1;9.952696800E0
8.816870379E0;-4.525041282E-1;1.244984865E-1;9.962273598E0
8.821815379E0;-4.884171486E-1;9.097966552E-2;9.962273598E0
8.826745148E0;-5.195417404E-1;8.379705995E-2;9.959878922E0
8.831690148E0;-5.003881454E-1;8.619125932E-2;9.974244118E0
8.836634148E0;-5.003881454E-1;9.576806426E-2;9.981427193E0
8.841579148E0;-4.979939461E-1;1.053448766E-1;1.000536919E1
8.846524148E0;-4.572925270E-1;1.316810995E-1;1.004367638E1
8.851469148E0;-4.118026793E-1;1.628057212E-1;1.007480049E1
8.856292148E0;-3.878606856E-1;1.771709323E-1;1.007958889E1
8.861359148E0;-3.639186621E-1;2.082955539E-1;1.008916569E1
8.866303148E0;-3.256114423E-1;2.442085743E-1;1.007958889E1
8.871248148E0;-3.040636182E-1;2.489969730E-1;1.004846478E1
8.876193148E0;-2.968810201E-1;2.920926213E-1;1.003649330E1
8.881138148E0;-2.633621991E-1;3.016694188E-1;1.001733971E1
8.886083148E0;-2.466027737E-1;3.016694188E-1;9.969455719E0
8.891028148E0;-2.370259613E-1;3.040636182E-1;9.911994934E0
8.895972148E0;-2.442085743E-1;2.992752194E-1;9.852140427E0
8.900917148E0;-2.681505978E-1;3.016694188E-1;9.792284966E0
8.905862148E0;-2.705447972E-1;3.040636182E-1;9.753977776E0
8.910807148E0;-2.394201756E-1;3.327940404E-1;9.698910713E0
8.915752148E0;-2.130839527E-1;3.423708379E-1;9.689333916E0
8.920697148E0;-1.987187415E-1;3.591302633E-1;9.691728592E0
8.925641148E0;-1.484405100E-1;3.854664862E-1;9.744400978E0
8.930586148E0;-1.125274822E-1;3.806780577E-1;9.765948296E0
8.935531148E0;-1.173158810E-1;4.022258818E-1;9.804255486E0
8.940476148E0;-1.029506698E-1;3.998316824E-1;9.842563629E0
8.945421148E0;-8.619125932E-2;3.998316824E-1;9.911994934E0
8.950366148E0;-9.576806426E-2;4.070142806E-1;9.947908401E0
8.955310148E0;-1.244984865E-1;3.998316824E-1;9.979032516E0
8.960255148E0;-1.795651317E-1;3.854664862E-1;1.001015759E1
8.965200148E0;-2.274491638E-1;3.423708379E-1;1.000058079E1
8.970145148E0;-2.585737705E-1;3.184288144E-1;9.967061996E0
8.975090148E0;-3.136404157E-1;2.777273953E-1;9.957485199E0
8.980035148E0;-3.615244627E-1;2.489969730E-1;9.916783333E0
8.984979148E0;-4.094084799E-1;2.035071403E-1;9.890447617E0
8.989924148E0;-4.189853072E-1;1.795651317E-1;9.854534149E0
8.994869148E0;-4.309563041E-1;1.556231081E-1;9.813833237E0
8.999814148E0;-4.429273009E-1;1.651999205E-1;9.789890289E0
9.004759148E0;-4.141969085E-1;1.915361285E-1;9.763554573E0
9.009704148E0;-3.974374831E-1;2.082955539E-1;9.777919769E0
9.014649148E0;-3.615244627E-1;2.346317619E-1;9.809044838E0
9.019593148E0;-3.399766386E-1;2.729389966E-1;9.856928825E0
9.024538148E0;-3.136404157E-1;2.992752194E-1;9.873687744E0
9.029443225E0;-3.232172430E-1;3.040636182E-1;9.921571732E0
9.034388225E0;-3.136404157E-1;2.849099934E-1;9.923966408E0
9.039333225E0;-3.232172430E-1;3.016694188E-1;9.938331604E0
9.044278225E0;-3.112462163E-1;2.968810201E-1;9.952696800E0
9.049222225E0;-3.256114423E-1;2.777273953E-1;9.962273598E0
9.054167225E0;-3.112462163E-1;2.633621991E-1;9.976638794E0
9.059112225E0;-3.040636182E-1;2.729389966E-1;9.974244118E0
9.064057225E0;-3.016694188E-1;2.657563984E-1;9.979032516E0
9.069002225E0;-3.112462163E-1;2.513911724E-1;9.964667320E0
9.073947225E0;-3.136404157E-1;2.609679997E-1;9.957485199E0
9.078889994E0;-3.447650373E-1;2.418143749E-1;9.928754807E0
9.083816494E0;-3.543418646E-1;2.466027737E-1;9.900024414E0
9.088761494E0;-3.687070608E-1;2.442085743E-1;9.895236015E0
9.093706494E0;-3.687070608E-1;2.250549644E-1;9.861717224E0
9.098651494E0;-3.687070608E-1;2.489969730E-1;9.873687744E0
9.103596494E0;-3.519476354E-1;2.274491638E-1;9.854534149E0
9.108540494E0;-3.423708379E-1;2.250549644E-1;9.856928825E0
9.113485494E0;-3.639186621E-1;2.418143749E-1;9.840168953E0
9.118430494E0;-3.711012602E-1;2.609679997E-1;9.868899345E0
9.123375494E0;-3.806780577E-1;2.537853718E-1;9.890447617E0
9.128320494E0;-3.782838583E-1;2.873041928E-1;9.919178009E0
9.133265494E0;-3.591302633E-1;2.825157940E-1;9.979032516E0
9.138209494E0;-3.375824392E-1;2.801215947E-1;1.001973438E1
9.143154494E0;-3.232172430E-1;2.849099934E-1;1.007480049E1
9.148099494E0;-3.184288144E-1;2.873041928E-1;1.013465595E1
9.153044494E0;-3.471592367E-1;2.801215947E-1;1.017775154E1
9.157989494E0;-3.351882398E-1;2.633621991E-1;1.022563553E1
9.162934494E0;-3.327940404E-1;2.633621991E-1;1.021366405E1
9.167878494E0;-3.519476354E-1;2.274491638E-1;1.020408726E1
9.172823494E0;-3.663128614E-1;1.963245422E-1;1.016099167E1
9.177768494E0;-3.687070608E-1;1.915361285E-1;1.010831928E1
9.182713494E0;-3.782838583E-1;1.628057212E-1;1.005325317E1
9.187658494E0;-3.878606856E-1;1.867477298E-1;1.000776291E1
9.192603494E0;-3.782838583E-1;1.795651317E-1;9.945513725E0
9.197547494E0;-3.974374831E-1;1.915361285E-1;9.871294022E0
9.202492494E0;-3.830722570E-1;2.250549644E-1;9.828198433E0
9.207427763E0;-3.519476354E-1;2.418143749E-1;9.763554573E0
9.212374763E0;-2.777273953E-1;2.873041928E-1;9.746794701E0
9.217319763E0;-2.466027737E-1;3.375824392E-1;9.761159897E0
9.222264763E0;-2.178723514E-1;3.687070608E-1;9.787496567E0
9.227209763E0;-1.867477298E-1;4.285621047E-1;9.861717224E0
9.232154763E0;-1.795651317E-1;4.596867263E-1;9.909601212E0
9.237099763E0;-1.580173075E-1;4.884171486E-1;9.959878922E0
9.242031340E0;-1.747767180E-1;4.764461517E-1;1.003649330E1
9.246854340E0;-1.747767180E-1;4.453215301E-1;1.005085850E1
9.251921340E0;-1.747767180E-1;4.189853072E-1;1.007958889E1
9.256866340E0;-1.628057212E-1;3.854664862E-1;1.008198357E1
9.261811340E0;-1.915361285E-1;3.256114423E-1;1.007719517E1
9.266756340E0;-2.202665508E-1;2.992752194E-1;1.003649330E1
9.271700340E0;-2.705447972E-1;2.753331959E-1;1.000058079E1
9.276645340E0;-2.825157940E-1;2.609679997E-1;9.957485199E0
9.281590340E0;-3.280056417E-1;2.657563984E-1;9.900024414E0
9.286535340E0;-3.591302633E-1;2.681505978E-1;9.856928825E0
9.291472647E0;-3.687070608E-1;2.849099934E-1;9.835380554E0
9.296417647E0;-3.567360640E-1;3.088520169E-1;9.804255486E0
9.301361647E0;-3.232172430E-1;3.447650373E-1;9.816226959E0
9.306306647E0;-2.681505978E-1;3.663128614E-1;9.818621635E0
9.311251647E0;-2.178723514E-1;3.687070608E-1;9.835380554E0
9.316196647E0;-2.082955539E-1;4.022258818E-1;9.859322548E0
9.321141647E0;-1.819593310E-1;4.165911078E-1;9.885659218E0
9.326086647E0;-1.556231081E-1;4.070142806E-1;9.919178009E0
9.331024878E0;-1.771709323E-1;4.118026793E-1;9.959878922E0
9.335968878E0;-1.891419291E-1;3.974374831E-1;9.991003990E0
9.340913878E0;-2.274491638E-1;3.591302633E-1;1.003170490E1
9.345858878E0;-2.609679997E-1;3.280056417E-1;1.004846478E1
9.350803878E0;-2.968810201E-1;2.681505978E-1;1.005804157E1
9.355748878E0;-3.399766386E-1;2.274491638E-1;1.008198357E1
9.360693878E0;-3.734954596E-1;2.011129409E-1;1.011071396E1
9.365637878E0;-4.094084799E-1;1.651999205E-1;1.010113716E1
9.370551032E0;-4.453215301E-1;1.340752989E-1;1.007958889E1
9.375496032E0;-4.836287498E-1;1.340752989E-1;1.006282997E1
9.380441032E0;-4.979939461E-1;1.244984865E-1;1.006282997E1
9.385386032E0;-5.219359994E-1;1.460463107E-1;1.003649330E1
9.390331032E0;-5.219359994E-1;1.651999205E-1;1.001255131E1
9.395272609E0;-5.363011956E-1;1.628057212E-1;9.974244118E0
9.400217609E0;-5.315127969E-1;1.771709323E-1;9.931148529E0
9.405162609E0;-4.955997467E-1;1.723825186E-1;9.878476143E0
9.410107609E0;-4.501099288E-1;1.939303428E-1;9.835380554E0
9.415052609E0;-4.165911078E-1;2.418143749E-1;9.785101891E0
9.419997609E0;-3.495534360E-1;2.801215947E-1;9.730035782E0
9.424941609E0;-3.136404157E-1;3.064578176E-1;9.737217903E0
9.429886609E0;-2.873041928E-1;3.280056417E-1;9.744400978E0
9.434831609E0;-2.418143749E-1;3.687070608E-1;9.758766174E0
9.439776609E0;-2.130839527E-1;4.118026793E-1;9.809044838E0
9.444721609E0;-2.082955539E-1;4.405331016E-1;9.856928825E0
9.449666609E0;-1.843535304E-1;4.525041282E-1;9.883264542E0
9.454610609E0;-1.819593310E-1;4.501099288E-1;9.892841339E0
9.459555609E0;-1.939303428E-1;4.429273009E-1;9.914389610E0
9.464500609E0;-1.987187415E-1;4.213795066E-1;9.945513725E0
9.469445609E0;-2.250549644E-1;4.118026793E-1;9.921571732E0
9.474390609E0;-2.442085743E-1;3.687070608E-1;9.911994934E0
9.479335609E0;-2.825157940E-1;3.567360640E-1;9.900024414E0
9.484279609E0;-3.112462163E-1;3.160346150E-1;9.868899345E0
9.489224609E0;-3.543418646E-1;2.968810201E-1;9.830592155E0
9.494169609E0;-3.711012602E-1;2.849099934E-1;9.825803757E0
9.499114609E0;-3.806780577E-1;2.801215947E-1;9.818621635E0
9.504059609E0;-3.711012602E-1;2.777273953E-1;9.825803757E0
9.509004609E0;-3.615244627E-1;2.801215947E-1;9.832986832E0
9.513948609E0;-3.734954596E-1;2.801215947E-1;9.888052940E0
9.518893609E0;-3.950432837E-1;2.681505978E-1;9.923966408E0
9.523838609E0;-3.950432837E-1;2.849099934E-1;9.979032516E0
9.528783609E0;-4.237737060E-1;2.801215947E-1;1.002212811E1
9.533728609E0;-4.094084799E-1;2.681505978E-1;1.004846478E1
9.538673609E0;-3.926490843E-1;2.537853718E-1;1.007001209E1
9.543617609E0;-3.950432837E-1;2.418143749E-1;1.007958889E1
9.548562609E0;-3.734954596E-1;2.370259613E-1;1.008437729E1
9.553507609E0;-4.070142806E-1;2.657563984E-1;1.008437729E1
9.558452609E0;-4.237737060E-1;2.849099934E-1;1.004607010E1
9.563397609E0;-4.189853072E-1;2.825157940E-1;1.000058079E1
9.568342609E0;-4.046200812E-1;2.801215947E-1;9.957485199E0
9.573286609E0;-4.094084799E-1;2.992752194E-1;9.895236015E0
9.578227070E0;-3.926490843E-1;3.327940404E-1;9.864110947E0
9.583172070E0;-3.615244627E-1;3.639186621E-1;9.837775230E0
9.588117070E0;-3.423708379E-1;3.782838583E-1;9.789890289E0
9.593062070E0;-2.944868207E-1;3.878606856E-1;9.749189377E0
9.598007070E0;-2.753331959E-1;4.070142806E-1;9.730035782E0
9.602951070E0;-2.609679997E-1;3.878606856E-1;9.727641106E0
9.607884378E0;-2.609679997E-1;3.878606856E-1;9.718064308E0
9.612829378E0;-2.681505978E-1;3.950432837E-1;9.725247383E0
9.617774378E0;-2.896983922E-1;3.830722570E-1;9.739612579E0
9.622719378E0;-3.016694188E-1;3.830722570E-1;9.792284966E0
9.627664378E0;-3.303998411E-1;3.663128614E-1;9.835380554E0
9.632608378E0;-3.375824392E-1;3.447650373E-1;9.902418137E0
9.637553378E0;-3.495534360E-1;3.208230138E-1;9.945513725E0
9.642498378E0;-3.303998411E-1;3.016694188E-1;9.983820915E0
9.647442570E0;-3.639186621E-1;2.849099934E-1;1.001494598E1
9.652387570E0;-3.639186621E-1;2.753331959E-1;1.004607010E1
9.657329339E0;-3.806780577E-1;2.681505978E-1;1.007001209E1
9.662273339E0;-3.974374831E-1;2.633621991E-1;1.005564690E1
9.667218339E0;-4.261679053E-1;2.537853718E-1;1.004128170E1
9.672163339E0;-4.477157295E-1;2.418143749E-1;1.001255131E1
9.677090186E0;-4.381389022E-1;2.178723514E-1;9.981427193E0
9.682035186E0;-4.572925270E-1;2.154781520E-1;9.933543205E0
9.686980186E0;-4.812345505E-1;1.915361285E-1;9.923966408E0
9.691924186E0;-4.596867263E-1;1.939303428E-1;9.904812813E0
9.696869186E0;-4.788403511E-1;2.059013397E-1;9.900024414E0
9.701814186E0;-4.788403511E-1;2.059013397E-1;9.890447617E0
9.706759186E0;-4.572925270E-1;1.915361285E-1;9.900024414E0
9.711704186E0;-4.333505034E-1;2.442085743E-1;9.950302124E0
9.716649186E0;-4.309563041E-1;2.466027737E-1;9.979032516E0
9.721593186E0;-3.878606856E-1;2.585737705E-1;9.995792389E0
9.726530763E0;-3.495534360E-1;2.585737705E-1;9.969455719E0
9.731475763E0;-3.423708379E-1;2.705447972E-1;9.935936928E0
9.736420763E0;-3.160346150E-1;2.873041928E-1;9.914389610E0
9.741365763E0;-2.968810201E-1;2.849099934E-1;9.885659218E0
9.746310763E0;-3.232172430E-1;2.992752194E-1;9.873687744E0
9.751254763E0;-3.399766386E-1;3.064578176E-1;9.804255486E0
9.756199763E0;-3.399766386E-1;3.064578176E-1;9.773131371E0
9.761144763E0;-3.782838583E-1;3.016694188E-1;9.758766174E0
9.766089763E0;-3.567360640E-1;3.064578176E-1;9.694122314E0
9.771034763E0;-2.873041928E-1;2.705447972E-1;9.655815125E0
9.775971532E0;-2.944868207E-1;3.064578176E-1;9.653421402E0
9.780915532E0;-2.968810201E-1;3.160346150E-1;9.698910713E0
9.785860532E0;-2.873041928E-1;3.734954596E-1;9.744400978E0
9.790805532E0;-2.442085743E-1;3.591302633E-1;9.722852707E0
9.795750532E0;-2.513911724E-1;3.471592367E-1;9.730035782E0
9.800695532E0;-2.466027737E-1;3.495534360E-1;9.758766174E0
9.805640532E0;-2.442085743E-1;3.639186621E-1;9.806650162E0
9.810571339E0;-2.298433632E-1;3.567360640E-1;9.868899345E0
9.815516339E0;-2.130839527E-1;3.543418646E-1;9.911994934E0
9.820461339E0;-2.250549644E-1;3.136404157E-1;9.943120003E0
9.825406339E0;-2.633621991E-1;3.136404157E-1;9.969455719E0
9.830351339E0;-3.088520169E-1;2.777273953E-1;9.983820915E0
9.835288032E0;-3.423708379E-1;2.202665508E-1;1.001733971E1
9.840233032E0;-3.854664862E-1;1.939303428E-1;1.001973438E1
9.845177032E0;-4.285621047E-1;1.795651317E-1;1.001973438E1
9.850122032E0;-4.572925270E-1;1.340752989E-1;1.001015759E1
9.855067032E0;-4.884171486E-1;1.005564705E-1;1.001015759E1
9.860002801E0;-4.884171486E-1;4.548983276E-2;9.983820915E0
9.864947801E0;-4.955997467E-1;3.591302410E-2;9.940725327E0
9.869892801E0;-4.884171486E-1;3.830722719E-2;9.911994934E0
9.874836801E0;-4.860229492E-1;7.422025502E-2;9.902418137E0
9.879781801E0;-4.596867263E-1;1.292868853E-1;9.861717224E0
9.884726801E0;-4.046200812E-1;1.604115069E-1;9.818621635E0
9.889671801E0;-3.543418646E-1;2.394201756E-1;9.770736694E0
9.894616801E0;-3.160346150E-1;2.825157940E-1;9.734824181E0
9.899561801E0;-2.442085743E-1;3.232172430E-1;9.730035782E0
9.904505801E0;-1.867477298E-1;3.782838583E-1;9.686940193E0
9.909450801E0;-1.197100878E-1;4.261679053E-1;9.706093788E0
9.914392493E0;-1.125274822E-1;4.309563041E-1;9.686940193E0
9.919337493E0;-1.077390760E-1;4.309563041E-1;9.713275909E0
9.924282493E0;-1.173158810E-1;4.333505034E-1;9.715670586E0
9.929227493E0;-1.795651317E-1;3.878606856E-1;9.744400978E0
9.934171493E0;-1.987187415E-1;3.734954596E-1;9.785101891E0
9.939116493E0;-2.705447972E-1;3.375824392E-1;9.835380554E0
9.944061493E0;-3.256114423E-1;3.160346150E-1;9.907206535E0
9.949006493E0;-3.950432837E-1;2.561795712E-1;9.967061996E0
9.953946878E0;-4.501099288E-1;2.250549644E-1;1.001015759E1
9.958891878E0;-4.764461517E-1;1.532289088E-1;1.003649330E1
9.963835878E0;-5.003881454E-1;1.316810995E-1;1.005325317E1
9.968780878E0;-5.003881454E-1;7.900865376E-2;1.007001209E1
9.973725878E0;-5.099649429E-1;4.788403213E-2;1.005804157E1
9.978670878E0;-4.955997467E-1;5.985504389E-2;1.003409958E1
9.983615878E0;-5.099649429E-1;5.746084079E-2;9.988609314E0
9.988560878E0;-4.716577232E-1;9.576806426E-2;9.940725327E0
9.993481416E0;-4.525041282E-1;1.125274822E-1;9.916783333E0
9.998426416E0;-4.237737060E-1;1.484405100E-1;9.873687744E0
1.000337142E1;-3.878606856E-1;1.963245422E-1;9.866505623E0
1.000831642E1;-3.519476354E-1;2.370259613E-1;9.844957352E0
1.001326142E1;-3.160346150E-1;2.681505978E-1;9.842563629E0
